"Time (s)","Acceleration x (m/s^2)","Acceleration y (m/s^2)","Acceleration z (m/s^2)","Absolute acceleration (m/s^2)"
-2.445208331E-3,-2.877017212E-1,2.725382538E0,7.236551514E0,7.738097962E0
7.593791663E-3,-3.677851868E-1,2.947221222E0,6.319558411E0,6.982707024E0
1.763279166E-2,-7.890092468E-1,3.216660919E0,6.540648651E0,7.331406948E0
2.767179166E-2,-1.199605408E0,2.643951874E0,6.877747650E0,7.465450247E0
3.771079166E-2,-1.586401062E0,1.845811615E0,6.915768585E0,7.331544447E0
4.774979167E-2,-4.379891968E-1,1.209484863E0,6.481371918E0,6.607788594E0
5.778979167E-2,1.245709534E0,4.471202087E-1,5.646108856E0,5.799159762E0
6.782879167E-2,2.204465790E0,1.887574768E-1,4.808151398E0,5.292789309E0
7.786779167E-2,2.891986084E0,-1.407073975E-2,4.690945129E0,5.510784672E0
8.790679167E-2,4.411476288E0,-2.041754150E-1,5.024900665E0,6.689726253E0
9.794579167E-2,4.785548401E0,-7.173083496E-1,5.343737640E0,7.209128708E0
1.079857917E-1,4.344116364E0,-1.681453400E0,6.144272919E0,7.710429444E0
1.180247917E-1,5.361999664E0,-2.442171478E0,8.189170532E0,1.008849622E1
1.280637917E-1,6.422394562E0,-3.695215759E0,9.563762054E0,1.209823607E1
1.381027917E-1,6.501729584E0,-6.320606232E0,1.008587631E1,1.356272287E1
1.481417917E-1,4.946912842E0,-7.212002563E0,9.752669220E0,1.309959864E1
1.581817917E-1,4.857398987E0,-6.713688812E0,7.431446228E0,1.113078324E1
1.682207917E-1,6.182892609E0,-6.592141571E0,6.814728699E0,1.131923225E1
1.782597917E-1,6.978637848E0,-6.595135345E0,7.924071808E0,1.244942209E1
1.882987917E-1,7.448061676E0,-6.782395935E0,1.000624191E1,1.419857016E1
1.983377917E-1,7.496411133E0,-5.509742432E0,1.080063995E1,1.425507857E1
2.083767917E-1,5.497767334E0,-4.175267487E0,9.689799957E0,1.189750089E1
2.184167917E-1,3.155438232E0,-4.036805420E0,7.608977051E0,9.173282956E0
2.284557917E-1,4.118535461E0,-4.150269470E0,4.895270233E0,7.625663360E0
2.384947917E-1,5.950276337E0,-3.866010590E0,3.608695679E0,7.960810943E0
2.485337917E-1,6.188431091E0,-4.193529510E0,5.052144012E0,9.022556636E0
2.585727917E-1,6.691085815E0,-4.848717041E0,5.558690643E0,9.958901948E0
2.686127917E-1,5.971382446E0,-6.294261017E0,5.070855103E0,1.004931349E1
2.786517917E-1,5.992787933E0,-6.850653992E0,4.767735443E0,1.027503132E1
2.886907917E-1,5.391338654E0,-7.057224426E0,4.159101105E0,9.806583048E0
2.987297917E-1,4.504582672E0,-7.508535919E0,4.194577332E0,9.708957498E0
3.087687917E-1,4.672683105E0,-8.248896332E0,4.702171783E0,1.058247030E1
3.188087917E-1,5.213508453E0,-9.332043915E0,5.903274078E0,1.221132093E1
3.288477917E-1,5.574407959E0,-1.017179764E1,7.111860809E0,1.360580962E1
3.388867917E-1,9.568103027E0,-9.718989258E0,1.064661026E1,1.730195532E1
3.489257917E-1,1.310030777E1,-6.653513947E0,1.502710098E1,2.101668564E1
3.589647917E-1,1.445993042E1,-4.066743164E0,1.598750381E1,2.193691560E1
3.690047917E-1,1.504192017E1,-2.602338409E0,1.416998337E1,2.082834502E1
3.790437917E-1,1.504656052E1,-2.076182556E0,1.279673904E1,1.986116934E1
3.890827917E-1,1.414812881E1,-2.328857117E0,1.200428696E1,1.870016122E1
3.991217917E-1,1.418525162E1,-3.617826691E0,1.027463379E1,1.788513721E1
4.091607917E-1,1.452803879E1,-2.539020081E0,8.739575958E0,1.714324129E1
4.191997917E-1,1.518876480E1,-4.870870972E-1,9.144483948E0,1.773576659E1
4.292397917E-1,1.495749573E1,1.440005493E-1,9.852361908E0,1.791134975E1
4.392787917E-1,1.467563187E1,1.691482544E-2,9.813742218E0,1.765457428E1
4.493177917E-1,1.355027206E1,-3.460803223E-1,9.352850647E0,1.646831685E1
4.593567917E-1,1.162108383E1,-1.513502655E0,6.674021301E0,1.348639463E1
4.693957917E-1,1.126347748E1,-6.646179199E-1,3.721860352E0,1.188107261E1
4.794357917E-1,1.090138046E1,1.498384094E-1,2.857707367E0,1.127071599E1
4.894747917E-1,1.049707123E1,-1.219963074E-1,2.146386566E0,1.071495976E1
4.995137917E-1,9.573342133E0,-4.484674072E-1,2.744991760E0,9.969201692E0
5.095522917E-1,8.766819305E0,-1.282982025E0,1.904190216E0,9.062510910E0
5.195912917E-1,8.259673920E0,-1.836680603E0,2.218686218E0,8.747466915E0
5.296302917E-1,7.822732544E0,-2.607876892E0,2.940036163E0,8.754426251E0
5.396702917E-1,7.995473328E0,-3.298840027E0,3.798500977E0,9.446615739E0
5.497092917E-1,8.201744385E0,-3.334316254E0,5.046605530E0,1.019090296E1
5.597482917E-1,7.676336975E0,-3.859873352E0,6.758296051E0,1.093157524E1
5.697872917E-1,7.073390808E0,-4.432133331E0,5.724845123E0,1.012178418E1
5.798262917E-1,6.780000916E0,-3.368894348E0,3.411405945E0,8.303947981E0
5.898662917E-1,6.475983124E0,-2.323168945E0,2.517015839E0,7.326038500E0
5.999052917E-1,5.471272430E0,-2.530936890E0,2.348915405E0,6.469765616E0
6.099442917E-1,4.071832581E0,-3.114872589E0,1.317260742E0,5.293149126E0
6.199832917E-1,2.041005707E0,-4.824766846E0,7.961943054E-1,5.298868255E0
6.300222917E-1,-3.433859253E-1,-7.368427277E0,1.329235840E0,7.495231974E0
6.400622917E-1,-1.370549927E0,-8.380772095E0,2.553988953E0,8.867841202E0
6.501012917E-1,-2.027833099E0,-8.489895172E0,3.745810547E0,9.498501133E0
6.601402917E-1,-2.743494873E0,-8.816665649E0,3.356919250E0,9.824930745E0
6.701792917E-1,-2.522404633E0,-8.419840851E0,2.573897552E0,9.158667681E0
6.802182917E-1,-4.840933228E-1,-7.198081512E0,3.860023041E0,8.182084189E0
6.902582917E-1,1.713037720E0,-6.455924835E0,5.028942261E0,8.360844692E0
7.002972917E-1,4.479285278E0,-6.271208954E0,6.396199036E0,1.001515953E1
7.103362917E-1,7.093000031E0,-8.436905365E0,9.595346375E0,1.461378437E1
7.203752917E-1,1.074765015E0,-9.338330841E0,1.142020157E1,1.479123209E1
7.304142917E-1,-1.300794983E-1,-9.607171783E0,1.045156586E1,1.419682708E1
7.404532917E-1,4.707410889E0,-7.660020905E0,6.197262726E0,1.091978493E1
7.504932917E-1,5.298831024E0,-7.717052307E0,7.034920807E0,1.170985129E1
7.605322917E-1,3.518134003E0,-8.877139893E0,7.280709686E0,1.200789795E1
7.705712917E-1,2.271676025E0,-9.006770325E0,6.271059265E0,1.120752461E1
7.806102917E-1,1.287472687E0,-8.545130310E0,4.945865021E0,9.956827745E0
7.906492917E-1,9.062155151E-1,-8.593180389E0,2.786156158E0,9.078911934E0
8.006892917E-1,2.869532776E-1,-8.884175262E0,2.223176880E0,9.162610311E0
8.107282917E-1,4.677772522E-1,-9.386979675E0,4.028123474E-1,9.407255751E0
8.207672917E-1,2.035766602E0,-1.058433975E1,3.155438232E-1,1.078295699E1
8.308062917E-1,1.581161957E0,-1.511377075E1,4.138743439E0,1.574977259E1
8.408452917E-1,-1.109193420E0,-1.730925522E1,8.861721954E0,1.947744188E1
8.508852917E-1,-1.198856964E0,-1.407253601E1,9.208251343E0,1.686017261E1
8.609242917E-1,2.932402039E0,-1.114312775E1,1.046803162E1,1.556752914E1
8.709632917E-1,4.332440643E0,-9.589059448E0,1.225411743E1,1.615188834E1
8.810022917E-1,1.436712341E0,-9.563911743E0,1.103954315E1,1.467665027E1
8.910412917E-1,4.384382629E-1,-1.103460342E1,5.690267029E0,1.242311715E1
9.010802917E-1,9.496252441E-1,-1.153231842E1,-4.776567078E-1,1.158120513E1
9.111202917E-1,1.317560120E0,-8.992998962E0,-1.539548492E0,9.218470837E0
9.211592917E-1,1.266216888E0,-5.557493134E0,7.090754700E-1,5.743850900E0
9.311982917E-1,3.786974945E0,-2.935844879E0,1.657952271E0,5.070421099E0
9.412372917E-1,6.048172760E0,-1.356179810E0,1.746418304E0,6.439688991E0
9.512762917E-1,7.158264313E0,-1.021625519E0,2.654430084E0,7.702627198E0
9.613162917E-1,4.464017029E0,-3.135679321E0,-1.312770081E-1,5.456845837E0
9.713552917E-1,5.869294739E-1,-7.394622803E0,-3.332070923E-1,7.425359222E0
9.813942917E-1,-3.182980957E0,-1.085707260E1,2.620301056E0,1.161349951E1
9.914332917E-1,-5.146747284E0,-1.209155548E1,5.104984131E0,1.409807024E1
1.001472292E0,-4.609664154E0,-1.171463928E1,6.568939819E0,1.419974463E1
1.011512292E0,-1.593735809E0,-9.893825684E0,7.817044373E0,1.270960122E1
1.021551292E0,1.470691681E0,-8.060737610E0,6.770869904E0,1.062935107E1
1.031590292E0,3.885619812E0,-7.147037659E0,4.951253815E0,9.523292653E0
1.041629292E0,6.129603424E0,-5.549709320E0,2.618055725E0,8.673265098E0
1.051668292E0,8.093369751E0,-3.589535522E0,-2.209704895E0,9.125250403E0
1.061707292E0,7.818840637E0,-4.395908661E0,-1.932331696E0,9.175630095E0
1.071747292E0,7.665409698E0,-4.844675446E0,-4.736151123E-1,9.080401824E0
1.081786292E0,8.305927734E0,-4.529131622E0,3.518882446E0,1.009376057E1
1.091825292E0,3.331172791E0,-6.903045044E0,8.185578003E0,1.121393911E1
1.101864292E0,-1.199006653E0,-1.112067444E1,1.095047836E1,1.565311449E1
1.111903292E0,-1.281185760E0,-1.182121765E1,9.103319550E0,1.497508099E1
1.121943292E0,-5.484594727E-1,-1.420965088E1,7.209757233E0,1.594351232E1
1.131982292E0,5.760021973E-1,-1.756342667E1,4.986430664E0,1.826664243E1
1.142021292E0,2.445314941E0,-1.530731827E1,2.465672607E0,1.569627660E1
1.152060292E0,6.230343933E0,-1.094972992E1,3.044967957E0,1.296092592E1
1.162099292E0,8.964707794E0,-7.524552612E0,4.270918579E0,1.245895756E1
1.172139292E0,9.231602783E0,-5.727988586E0,4.701273651E0,1.183783414E1
1.182178292E0,9.944420471E0,-4.291126556E0,3.204685822E0,1.129492261E1
1.192217292E0,9.930948486E0,-5.099595337E0,-6.770420837E-1,1.118427451E1
1.202256292E0,7.436385956E0,-9.739496613E0,-2.470911713E0,1.250052139E1
1.212295292E0,6.739135895E0,-1.045066772E1,1.857637024E-1,1.243651545E1
1.222334292E0,5.388793945E-3,-1.469299576E1,3.808081055E0,1.517845956E1
1.232374292E0,-6.790778503E0,-1.968855743E1,5.137915649E0,2.145115717E1
1.242413292E0,1.402733002E0,-1.130568970E1,-3.450325012E-1,1.139760180E1
1.252452292E0,6.623127136E0,-5.170996857E0,1.409319305E0,8.520047093E0
1.262491292E0,6.402485962E0,-4.093836823E0,6.262976074E-1,7.625193448E0
1.272530292E0,1.413809967E0,-6.898105316E0,-1.839674377E0,7.277851152E0
1.282570292E0,-1.507215729E0,-7.872429199E0,5.495072937E-1,8.034226722E0
1.292609292E0,3.382366333E0,-5.236410828E0,4.471052399E0,7.671421636E0
1.302648292E0,7.090155945E0,-5.826633453E0,8.472082214E0,1.248984170E1
1.312687292E0,7.661368103E0,-8.187823334E0,9.651180267E0,1.479467109E1
1.322726292E0,3.661386108E0,-9.040450287E0,6.715634766E0,1.184209610E1
1.332766292E0,-2.516117706E0,-7.225175171E0,5.119653625E0,9.205697030E0
1.342805292E0,-9.972262573E-1,-6.084696808E0,6.119574280E0,8.687185092E0
1.352844292E0,4.838687897E0,-5.323379974E0,5.780828705E0,9.228719057E0
1.362883292E0,8.576564941E0,-4.720433807E0,6.811734924E0,1.192642839E1
1.372922292E0,9.516011353E0,-4.171974335E0,6.396797791E0,1.220159268E1
1.382962292E0,8.758736115E0,-4.921016693E0,4.132306824E0,1.086314058E1
1.393001292E0,8.607400818E0,-5.365292816E0,3.379522247E0,1.069087866E1
1.403040292E0,8.207582245E0,-5.023104401E0,2.064656525E0,9.841686374E0
1.413079292E0,7.598049774E0,-5.137017517E0,2.797682190E-1,9.175923910E0
1.423118292E0,6.035149841E0,-9.731563110E0,-1.197509766E-3,1.145104168E1
1.433157292E0,7.318281555E-1,-1.839045685E1,2.667453003E-1,1.840694512E1
1.443197292E0,5.232818298E0,-1.181597855E1,-3.509152679E0,1.339081360E1
1.453236292E0,1.735565872E1,-5.723048859E0,5.712121582E-1,1.828383060E1
1.463275292E0,1.907139084E1,-6.006259918E0,1.053808594E1,2.260186634E1
1.473314292E0,1.068253555E1,-7.340136108E0,1.060245209E1,1.674533231E1
1.483353292E0,5.716312866E0,-6.555767212E0,8.306376801E0,1.202706166E1
1.493393292E0,5.606890411E0,-6.329886932E0,6.980434113E0,1.096499654E1
1.503432292E0,6.189628601E0,-5.813909912E0,4.056264954E0,9.410968922E0
1.513471667E0,4.942122803E0,-5.453309784E0,8.610095215E-1,7.409757270E0
1.523510667E0,-3.311114502E-1,-6.770420837E0,1.615141296E0,6.968279165E0
1.533549667E0,-3.871848450E0,-6.422244873E0,3.357218628E0,8.216286055E0
1.543589667E0,-3.013084259E0,-8.295000458E0,9.174421692E-1,8.872846752E0
1.553628667E0,-1.370250549E0,-6.994355164E0,1.651066589E0,7.316051640E0
1.563667667E0,1.518592072E0,-5.585933990E0,4.216282196E0,7.161411591E0
1.573706667E0,4.734055481E0,-5.087769928E0,4.739893341E0,8.412090883E0
1.583745667E0,6.222111053E0,-4.794679413E0,5.228926392E0,9.436381078E0
1.593784667E0,6.245312805E0,-6.036047974E0,6.204597473E0,1.067402628E1
1.603824667E0,7.051685944E0,-7.097041626E0,6.521039429E0,1.194228746E1
1.613863667E0,8.317902832E0,-8.741970978E0,6.971303101E0,1.393587568E1
1.623902667E0,8.536747742E0,-1.320029984E1,6.269562378E0,1.692428404E1
1.633941667E0,1.049647247E1,-1.058598633E1,1.778601379E0,1.501340947E1
1.643980667E0,1.522349258E1,-2.307601318E0,-1.964514771E0,1.552221210E1
1.654020667E0,1.461889984E1,-4.212689667E0,-3.343447266E0,1.557682979E1
1.664059667E0,8.155640259E0,-9.188941498E0,-3.224744110E0,1.270236547E1
1.674098667E0,3.964206390E0,-7.720495148E0,-2.128423920E0,8.935947964E0
1.684137667E0,2.374212799E0,-4.709955597E0,-1.356628876E0,5.446192252E0
1.694176667E0,2.841690674E0,-3.066822510E0,9.629475403E-1,4.290439856E0
1.704216667E0,4.273912354E0,-3.918850708E0,3.245251465E0,6.644951072E0
1.714255667E0,6.238876190E0,-7.087162170E0,6.450835419E0,1.143524033E1
1.724294667E0,8.440497894E0,-1.081156723E1,8.727451172E0,1.625731819E1
1.734333667E0,1.105705673E1,-1.222552689E1,1.040411453E1,1.949275790E1
1.744372667E0,1.153022278E1,-1.019754410E1,9.003926239E0,1.783274041E1
1.754411667E0,8.857830048E0,-9.217082977E0,6.227050781E0,1.421942099E1
1.764451667E0,8.639583893E0,-8.459807739E0,4.439617767E0,1.288103112E1
1.774490667E0,1.091694809E1,-6.764882355E0,4.548441467E0,1.362467279E1
1.784529667E0,1.168544998E1,-6.471941528E0,3.960763550E0,1.393281796E1
1.794568667E0,1.038181091E1,-8.144413605E0,2.893183594E0,1.350866322E1
1.804607667E0,8.107440491E0,-9.785900116E0,3.068169708E0,1.307318239E1
1.814647667E0,6.398594055E0,-8.437204742E0,3.363505554E0,1.111042751E1
1.824686667E0,6.194718018E0,-7.024442596E0,3.134781189E0,9.876445626E0
1.834725667E0,5.707930298E0,-7.167095947E0,3.413052521E0,9.777354454E0
1.844764667E0,6.447542267E0,-8.164621582E0,2.602637787E0,1.072406501E1
1.854803667E0,9.423204346E0,-4.731510773E0,3.228785706E0,1.102764850E1
1.864843667E0,1.055979080E1,-6.768325195E0,4.279899902E0,1.325280917E1
1.874882667E0,8.076454926E0,-9.661957855E0,5.764961700E0,1.384981361E1
1.884921667E0,5.325774994E0,-1.018526962E1,6.873256989E0,1.339198485E1
1.894960667E0,3.919000397E0,-7.097640381E0,8.578211517E0,1.180342221E1
1.904999667E0,-8.271798706E-1,-5.937253418E0,9.703122253E0,1.140551560E1
1.915038667E0,-4.297114105E0,-8.026907959E0,8.453670502E0,1.242420967E1
1.925078667E0,-6.169720001E0,-8.966953125E0,5.128784637E0,1.203229509E1
1.935117667E0,-8.308622131E0,-8.789871368E0,2.040406952E0,1.226614450E1
1.945156667E0,-1.117905304E1,-5.571863251E0,1.587897949E0,1.259119958E1
1.955195667E0,-1.004740631E1,-4.492607574E0,7.343728638E-1,1.103055755E1
1.965234667E0,-7.396419067E0,-6.142925720E0,-6.646179199E-1,9.637648489E0
1.975274667E0,-5.766757965E0,-8.208031311E0,-2.418520660E0,1.031874593E1
1.985313667E0,-4.741689606E0,-9.496102753E0,-3.271896057E0,1.110697491E1
1.995352667E0,-4.603676605E0,-8.847351837E0,-3.590134277E0,1.059993099E1
2.005391667E0,-4.444856873E0,-7.371570740E0,-3.054098969E0,9.133691931E0
2.015430667E0,-2.854114838E0,-7.457641754E0,-1.848356323E0,8.196268245E0
2.025470667E0,-1.288969574E0,-7.327412567E0,7.349716187E-2,7.440283551E0
2.035509667E0,3.284170532E-1,-7.391479340E0,2.305206299E-1,7.402362079E0
2.045548667E0,1.678459625E0,-7.217840424E0,-3.041674805E-1,7.416668049E0
2.055587667E0,3.046764221E0,-8.553213501E0,1.996099091E0,9.296485626E0
2.065626667E0,5.120701447E0,-1.255783585E1,7.350913696E0,1.542584703E1
2.075665667E0,6.684499512E0,-1.719070175E1,1.350282074E1,2.285889167E1
2.085705667E0,9.213939514E0,-2.008493317E1,1.905507477E1,2.917870964E1
2.095744667E0,1.326975540E1,-1.846036148E1,1.857906464E1,2.936073904E1
2.105783667E0,1.659973068E1,-1.185669388E1,1.893592255E1,2.783345848E1
2.115822667E0,1.630768799E1,-7.123536530E0,1.994093262E1,2.672688261E1
2.125861667E0,1.676139450E1,-8.030350800E0,1.816053497E1,2.598530181E1
2.135901667E0,1.735685623E1,-9.342971191E0,1.415516418E1,2.426767896E1
2.145940667E0,1.559696594E1,-8.485703888E0,7.420219574E0,1.924401662E1
2.155979667E0,9.335337067E0,-3.243904266E0,-6.940766602E0,1.207665823E1
2.166018667E0,4.481231232E0,-2.661764832E0,-1.309327240E1,1.409255859E1
2.176057667E0,5.693111115E0,-8.300838318E0,-7.415579224E0,1.250224964E1
2.186097667E0,6.639592896E0,-8.811725922E0,-4.225712585E0,1.181470924E1
2.196136667E0,9.738149414E0,-1.033391052E1,-3.157533875E0,1.454617753E1
2.206175667E0,1.021131546E1,-9.702822876E0,-2.429897003E0,1.429405942E1
2.216214667E0,8.620723114E0,-8.354277191E0,-9.086105347E-2,1.200496023E1
2.226253667E0,3.354823608E0,-9.318122864E0,1.020577698E0,9.956095318E0
2.236292667E0,-3.085084534E-1,-1.083806213E1,2.189945984E0,1.106140279E1
2.246332667E0,-1.901046753E0,-1.096544724E1,6.158193970E-1,1.114604169E1
2.256371667E0,-1.948797455E0,-1.203078186E1,1.610500946E0,1.229354453E1
2.266410667E0,2.559078369E0,-1.559337341E1,6.141279144E0,1.695339158E1
2.276449667E0,2.492466888E0,-1.474448868E1,9.217232666E0,1.756615255E1
2.286488667E0,5.927673340E-2,-1.054542068E1,1.225756027E1,1.616963806E1
2.296528667E0,5.745053101E-1,-7.999365234E0,1.556687851E1,1.751135652E1
2.306567667E0,4.008065186E0,-9.857900391E0,1.455662933E1,1.803159017E1
2.316606667E0,7.365283813E0,-1.047536636E1,1.151240982E1,1.721964825E1
2.326645667E0,7.487579498E0,-1.065095123E1,8.829838257E0,1.573126354E1
2.336684667E0,5.119354248E0,-1.193992081E1,5.567222900E0,1.413377047E1
2.346724667E0,1.744472351E0,-1.244571899E1,2.153122559E0,1.275049183E1
2.356763667E0,-1.984123993E0,-1.204500229E1,-1.457668762E0,1.229404841E1
2.366802667E0,-1.955084381E0,-8.338260498E0,-8.583151245E-1,8.607302012E0
2.376841667E0,-1.122665405E0,-1.209634552E0,-1.079255676E0,1.971899129E0
2.386880667E0,3.370540924E0,-9.388027496E0,-5.754782867E0,1.151577754E1
2.396920667E0,8.975934448E0,-1.071187454E1,-3.370391235E0,1.437606318E1
2.406959667E0,1.418435349E1,-7.882907410E0,3.047063599E0,1.651122980E1
2.416998667E0,1.648851196E1,-1.101708984E1,6.099066925E0,2.074719048E1
2.427037667E0,1.503039413E1,-1.351913681E1,5.174140320E0,2.086747555E1
2.437076667E0,1.247775238E1,-9.802665253E0,4.166435852E0,1.640566177E1
2.447115667E0,1.120554794E1,-9.838440857E0,4.905299377E0,1.569780829E1
2.457155667E0,1.111528564E1,-9.229357452E0,6.844217377E0,1.598667963E1
2.467194667E0,1.091440338E1,-7.163802795E0,7.595954132E0,1.510439641E1
2.477233667E0,1.206940155E1,-5.991141357E0,6.963668976E0,1.516762718E1
2.487272667E0,1.351060455E1,-4.548441467E0,6.602170715E0,1.571029641E1
2.497311667E0,1.220666611E1,-6.192023621E0,6.447093201E0,1.512973446E1
2.507351667E0,1.106499023E1,-7.160210266E0,6.245163116E0,1.458439859E1
2.517390958E0,1.016790573E1,-6.539002075E0,5.227878571E0,1.317101247E1
2.527429958E0,7.556885376E0,-6.691085815E0,4.881199493E0,1.121174627E1
2.537468958E0,3.823498993E0,-5.956413574E0,5.921386414E0,9.228262257E0
2.547507958E0,-1.914518738E-1,-5.936654663E0,6.526727600E0,8.824890683E0
2.557547958E0,-2.030677185E0,-5.534141693E0,7.368576965E0,9.436434740E0
2.567586958E0,-2.103126526E-1,-3.637136536E0,7.254065094E0,8.117539897E0
2.577625958E0,3.103047180E0,-2.883753204E0,6.597530365E0,7.840429916E0
2.587664958E0,4.789589996E0,-2.995271301E0,6.055956573E0,8.281692612E0
2.597703958E0,3.957171021E0,-2.925216980E0,5.277275848E0,7.215659169E0
2.607742958E0,2.062411194E0,-2.919528809E0,4.310735779E0,5.599967085E0
2.617782958E0,1.221759338E0,-3.086731110E0,2.302661591E0,4.040155347E0
2.627821958E0,2.707868958E-1,-3.866609344E0,-2.085163879E-1,3.881684229E0
2.637860958E0,1.006357269E0,-3.784879303E0,-1.370849304E0,4.149372736E0
2.647899958E0,1.683249664E0,-3.784430237E0,-9.666897583E-1,4.253202410E0
2.657938958E0,1.189725952E0,-3.838467865E0,-7.608677673E-1,4.090012610E0
2.667978958E0,2.671943665E-1,-4.920268250E0,-9.144483948E-1,5.011651259E0
2.678017958E0,1.069525909E0,-5.631888428E0,-1.424138489E0,5.906794678E0
2.688056958E0,2.878813477E0,-6.735243988E0,-2.012864227E0,7.596229394E0
2.698095958E0,1.885329437E0,-9.958640900E0,-1.574575653E0,1.025710896E1
2.708134958E0,-7.312294006E-1,-9.477541351E0,-5.237608337E-1,9.520126675E0
2.718174958E0,8.238867188E-1,-3.530558167E0,3.451223145E0,5.005454174E0
2.728213958E0,2.605032806E0,-5.328619080E0,6.938970337E0,9.128509547E0
2.738252958E0,3.903283081E0,-7.782316589E0,5.104834442E0,1.009254205E1
2.748291958E0,5.183271332E0,-8.365354156E0,-6.261479187E-1,9.860908329E0
2.758330958E0,8.960366821E0,-9.589059448E0,-3.905827789E0,1.369283482E1
2.768370958E0,1.469569016E1,-1.059347076E1,-3.327879639E0,1.841900418E1
2.778409958E0,1.913575699E1,-1.232896179E1,-2.281555481E0,2.287763077E1
2.788448958E0,2.102452927E1,-1.368439316E1,-1.729353790E0,2.514526022E1
2.798487958E0,2.229134491E1,-1.305420364E1,1.627116394E-1,2.583297826E1
2.808526958E0,2.390933029E1,-1.260528717E1,2.059716797E-1,2.702946104E1
2.818566958E0,2.400722672E1,-1.219124817E1,-9.186396790E-1,2.694099785E1
2.828605958E0,2.172432404E1,-9.979597321E0,6.077362061E-2,2.390695110E1
2.838644958E0,1.894146103E1,-7.789052582E0,2.443967743E0,2.062574276E1
2.848683958E0,1.590158249E1,-4.120631104E0,4.697381744E0,1.708523695E1
2.858722958E0,1.309746368E1,8.150550842E-1,4.965174866E0,1.403071029E1
2.868761958E0,1.118923187E1,6.831194458E0,2.803370361E0,1.340608119E1
2.878801958E0,1.047476761E1,9.734856262E0,2.284848633E0,1.448132301E1
2.888840958E0,1.238629257E1,6.664740601E0,9.547146606E-1,1.409788960E1
2.898879958E0,1.396490982E1,1.812281342E0,-3.763174438E-1,1.408703960E1
2.908918958E0,1.360146561E1,-1.895807648E0,-5.568420410E-1,1.374423611E1
2.918957958E0,1.298684372E1,-4.206402740E0,-1.213676147E0,1.370492406E1
2.928997958E0,1.197569641E1,-5.880820770E0,-1.585502930E0,1.343559366E1
2.939036958E0,1.011761032E1,-6.738237762E0,-1.355581055E0,1.223141393E1
2.949075958E0,8.413104858E0,-7.203021240E0,-1.010847931E0,1.112140557E1
2.959114958E0,6.991511078E0,-7.444319458E0,-5.986051941E-1,1.023022226E1
2.969153958E0,6.330335999E0,-7.265291748E0,-5.099894714E-1,9.649751670E0
2.979193958E0,6.729555817E0,-6.445446625E0,-3.653901672E-1,9.325460506E0
2.989232958E0,6.222709808E0,-6.194418640E0,1.121168518E-1,8.780974310E0
2.999271958E0,5.611381073E0,-6.310726776E0,4.558021545E-1,8.456986792E0
3.009310958E0,5.143154755E0,-6.306236115E0,5.795947266E-1,8.158221915E0
3.019349958E0,5.307662659E0,-6.472390594E0,8.987310791E-1,8.418482076E0
3.029389958E0,5.979615326E0,-6.841373291E0,1.359472961E0,9.187401955E0
3.039428958E0,6.294261017E0,-7.033872986E0,1.696122894E0,9.590095088E0
3.049467958E0,5.787714386E0,-6.648274841E0,1.718576202E0,8.980573497E0
3.059506958E0,6.002068634E0,-6.672374725E0,2.045196991E0,9.204794571E0
3.069545958E0,7.917036438E0,-7.321724396E0,2.726879425E0,1.112308345E1
3.079584958E0,9.203161926E0,-8.095764771E0,3.673510895E0,1.279586961E1
3.089624958E0,9.612261200E0,-8.771908722E0,4.869673462E0,1.389444737E1
3.099663958E0,9.304351501E0,-8.561745758E0,4.924609222E0,1.356931182E1
3.109702958E0,8.303233337E0,-7.447462921E0,3.312012634E0,1.163519727E1
3.119741958E0,7.356152802E0,-6.570436707E0,1.813778229E0,1.002862972E1
3.129780958E0,6.923702087E0,-6.145769806E0,1.016236725E0,9.313478093E0
3.139820958E0,6.776558075E0,-5.989195404E0,6.222560120E-1,9.065285626E0
3.149859958E0,6.639892273E0,-5.954317932E0,2.460882568E-1,8.922030647E0
3.159898958E0,6.496939545E0,-5.890400848E0,1.398092651E-1,8.770780594E0
3.169937958E0,6.776857452E0,-6.053711243E0,4.656816101E-1,9.098905214E0
3.179976958E0,7.988887024E0,-6.748416595E0,1.312470703E0,1.053973537E1
3.190016958E0,9.253008270E0,-6.817273407E0,1.383273468E0,1.157613166E1
3.200055958E0,9.314081268E0,-6.347699890E0,1.874102783E-1,1.127299988E1
3.210094958E0,8.394244080E0,-5.499862976E0,-9.370513916E-2,1.003596568E1
3.220133958E0,7.806266785E0,-4.703219604E0,1.962419128E-1,9.115732919E0
3.230172958E0,7.578590240E0,-4.173920288E0,5.351371765E-1,8.668506930E0
3.240212958E0,7.240293732E0,-3.630250854E0,7.750881958E-1,8.136420361E0
3.250251958E0,7.100933533E0,-3.186872864E0,1.218017120E0,7.878006181E0
3.260290958E0,7.498357086E0,-3.023712158E0,2.098635864E0,8.352991482E0
3.270329958E0,8.303083649E0,-3.710933075E0,3.087329865E0,9.604365052E0
3.280368958E0,8.824449463E0,-4.760550385E0,3.329675903E0,1.056505986E1
3.290407958E0,8.500672760E0,-5.356910248E0,2.371668091E0,1.032389143E1
3.300447958E0,8.247249756E0,-5.553750916E0,1.020278320E0,9.995111086E0
3.310486958E0,8.843908997E0,-6.112987976E0,3.845503235E-1,1.075784492E1
3.320525958E0,9.188043365E0,-6.622977448E0,8.861572266E-2,1.132659807E1
3.330564958E0,9.124874725E0,-6.841223602E0,-2.142045593E-1,1.140664555E1
3.340603958E0,8.808133392E0,-6.915319519E0,-4.352947998E-1,1.120688804E1
3.350643958E0,8.289012909E0,-6.709497528E0,-4.406835938E-1,1.067329818E1
3.360682958E0,7.570507050E0,-6.157295837E0,-3.405418396E-1,9.764263298E0
3.370721958E0,6.823111267E0,-5.360203400E0,1.080752563E-1,8.677459773E0
3.380760958E0,6.578819275E0,-4.818330231E0,4.848417664E-1,8.168980402E0
3.390799958E0,6.700067139E0,-4.439019012E0,9.753717041E-1,8.096118787E0
3.400839958E0,7.245532837E0,-4.326004028E0,1.532363434E0,8.576724004E0
3.410878958E0,7.943381653E0,-4.232747955E0,2.067650299E0,9.235185168E0
3.420917958E0,8.601413269E0,-3.915557556E0,2.467917938E0,9.767626127E0
3.430956958E0,8.929980011E0,-4.073329468E0,2.719245300E0,1.018483436E1
3.440995958E0,9.026229858E0,-4.868925018E0,2.624192963E0,1.058610622E1
3.451035958E0,9.330247650E0,-5.846542053E0,2.276615753E0,1.124360060E1
3.461074958E0,9.901908875E0,-6.506519623E0,1.832788696E0,1.198923314E1
3.471113958E0,1.004590942E1,-6.430777130E0,9.885443115E-1,1.196880990E1
3.481152958E0,9.641450500E0,-5.933211823E0,1.374142456E-1,1.132163650E1
3.491191958E0,8.796008606E0,-5.241949310E0,-2.272274780E-1,1.024204239E1
3.501231958E0,8.363408203E0,-4.677622833E0,-3.309617615E-1,9.588341245E0
3.511270542E0,8.300389252E0,-4.368964691E0,9.250762939E-2,9.380451581E0
3.521309542E0,8.317603455E0,-4.743785248E0,9.213340759E-1,9.619505298E0
3.531348542E0,8.505612488E0,-5.372328186E0,1.651365967E0,1.019482042E1
3.541387542E0,8.614136810E0,-5.855673065E0,2.294877777E0,1.066577349E1
3.551427542E0,8.556806030E0,-6.071075134E0,2.779569855E0,1.085370404E1
3.561466542E0,8.441994781E0,-6.252797241E0,2.702031097E0,1.084738315E1
3.571505542E0,8.610693970E0,-6.296057281E0,2.320624237E0,1.091648683E1
3.581544542E0,8.918453979E0,-6.038293304E0,1.838925934E0,1.092618213E1
3.591583542E0,8.770711212E0,-5.426964569E0,1.324745178E0,1.039866671E1
3.601622542E0,8.065377960E0,-4.781506805E0,8.409512329E-1,9.413837047E0
3.611662542E0,7.868088226E0,-4.691244507E0,4.433779907E-1,9.171214282E0
3.621701542E0,7.926616516E0,-4.501289520E0,-4.864883423E-2,9.115658147E0
3.631740542E0,8.172106018E0,-4.500391388E0,-3.067121887E-1,9.334394023E0
3.641779542E0,8.665929108E0,-4.693190460E0,-3.016227722E-1,9.859783988E0
3.651818542E0,9.416618042E0,-5.090164948E0,-1.514849854E-1,1.070539220E1
3.661858542E0,9.726324005E0,-5.329966278E0,-5.987548828E-3,1.109098530E1
3.671897542E0,9.502838745E0,-5.527405701E0,2.421963501E-1,1.099612737E1
3.681936542E0,8.716224518E0,-5.607938232E0,5.560935974E-1,1.037934397E1
3.691975542E0,7.519612885E0,-5.556145935E0,6.611750793E-1,9.372965810E0
3.702014542E0,6.191125488E0,-5.323529663E0,7.481442261E-1,8.199373309E0
3.712054542E0,5.414091339E0,-5.211562500E0,6.035449219E-1,7.539034102E0
3.722093542E0,5.689368896E0,-5.450914764E0,5.016069031E-1,7.895125059E0
3.732132542E0,6.671027527E0,-6.094725952E0,6.141728210E-1,9.056793083E0
3.742171542E0,7.191944275E0,-6.489006042E0,4.409829712E-1,9.696686437E0
3.752210542E0,7.591912537E0,-6.891069946E0,-1.383123779E-1,1.025393150E1
3.762250542E0,7.288493500E0,-6.853498077E0,-1.490899658E-1,1.000573841E1
3.772289542E0,7.068600769E0,-7.117099915E0,-6.586303711E-3,1.003086593E1
3.782328542E0,7.108268280E0,-6.995552673E0,1.362167358E-2,9.973235217E0
3.792367542E0,7.725434875E0,-7.035968628E0,1.706451416E-1,1.045066114E1
3.802406542E0,8.681347046E0,-7.068900146E0,5.578898621E-1,1.120920947E1
3.812446542E0,8.655600586E0,-6.125861206E0,7.165599060E-1,1.062821975E1
3.822485542E0,8.745862885E0,-5.386847992E0,9.783654785E-1,1.031820953E1
3.832524542E0,9.471853180E0,-4.696034546E0,1.172212372E0,1.063686161E1
3.842563542E0,1.036265076E1,-4.280049591E0,1.226399689E0,1.127862631E1
3.852602542E0,1.111378876E1,-4.156257019E0,1.165775757E0,1.192265935E1
3.862641542E0,1.145687531E1,-4.433330841E0,9.559121704E-1,1.232185790E1
3.872681542E0,1.112127319E1,-4.707859955E0,1.678010559E-1,1.207786488E1
3.882720542E0,1.067235672E1,-5.190755768E0,-5.548960876E-1,1.188070087E1
3.892759542E0,9.672885132E0,-5.273982697E0,-6.634204102E-1,1.103719742E1
3.902798542E0,8.413703613E0,-4.846621399E0,-6.503974915E-1,9.731555085E0
3.912837542E0,7.717201996E0,-4.647385712E0,-4.670288086E-2,9.008639284E0
3.922877542E0,7.824379120E0,-4.888683929E0,8.411009216E-1,9.264318104E0
3.932916542E0,8.171357574E0,-5.755830688E0,1.388811951E0,1.009105892E1
3.942955542E0,8.271050262E0,-7.161707153E0,1.786534882E0,1.108566771E1
3.952994542E0,7.829468536E0,-8.272696838E0,2.299667816E0,1.162009305E1
3.963033542E0,7.182364197E0,-8.642577667E0,2.524350586E0,1.151750190E1
3.973073542E0,6.902745667E0,-8.896300049E0,1.785786438E0,1.140092477E1
3.983112542E0,6.940766602E0,-8.819509735E0,1.319206696E0,1.130036722E1
3.993151542E0,6.255940704E0,-8.195756836E0,2.080822906E0,1.051841472E1
4.003190542E0,4.994513855E0,-6.883435822E0,2.728526001E0,8.931501077E0
4.013229542E0,3.897145844E0,-5.539380798E0,2.744991760E0,7.308041127E0
4.023269542E0,3.760929108E0,-4.947661285E0,2.048789520E0,6.543812226E0
4.033308542E0,4.410278778E0,-5.240302734E0,1.155297546E0,6.945937235E0
4.043347542E0,6.033054199E0,-6.016139374E0,6.107299805E-1,8.541935790E0
4.053386542E0,8.704848175E0,-6.877897339E0,1.365161133E-1,1.109497590E1
4.063425542E0,1.081321381E1,-7.416926422E0,-2.285746765E-1,1.311444382E1
4.073465542E0,1.137065460E1,-7.469766541E0,-4.269122314E-1,1.361144564E1
4.083504542E0,1.065499283E1,-7.062912598E0,-5.312452698E-1,1.279436704E1
4.093543542E0,8.976832581E0,-6.017037506E0,-4.303550720E-1,1.081542736E1
4.103582542E0,7.339537354E0,-4.991520081E0,-3.141966248E-1,8.881599000E0
4.113621542E0,6.210435333E0,-4.120631104E0,-3.927832031E-1,7.463470129E0
4.123660542E0,5.624553680E0,-3.331921234E0,-5.863307190E-1,6.563618432E0
4.133700542E0,5.416186981E0,-2.811752930E0,-5.538482666E-1,6.127624650E0
4.143739542E0,5.767207031E0,-2.632425842E0,-1.784289551E-1,6.342095840E0
4.153778542E0,6.742728424E0,-2.975662079E0,4.119433594E-1,7.381642686E0
4.163817542E0,7.614365845E0,-3.805985413E0,7.891589355E-1,8.549085565E0
4.173856542E0,7.943531342E0,-4.715045013E0,8.893006897E-1,9.280204490E0
4.183896542E0,7.926616516E0,-5.463937683E0,5.858816528E-1,9.645160533E0
4.193935542E0,8.266858978E0,-6.011499023E0,1.113684082E-1,1.022210745E1
4.203974542E0,9.238937531E0,-6.647676086E0,-1.571731567E-2,1.138199504E1
4.214013542E0,9.870324554E0,-7.026388550E0,3.502716064E-2,1.211588502E1
4.224052542E0,1.022478745E1,-7.045848083E0,2.402503967E-1,1.241966077E1
4.234092542E0,1.026864624E1,-6.798412628E0,7.424560547E-1,1.233753423E1
4.244131542E0,9.790540466E0,-6.689738617E0,1.313518524E0,1.193032339E1
4.254170542E0,8.780440979E0,-6.586902466E0,1.542991333E0,1.108441474E1
4.264209542E0,7.661966858E0,-6.509214020E0,1.662592621E0,1.019018241E1
4.274248542E0,6.620582428E0,-6.487808533E0,2.064806213E0,9.496693948E0
4.284288542E0,5.170098724E0,-6.225703583E0,2.493814087E0,8.468082110E0
4.294327542E0,3.982019348E0,-5.857768707E0,1.899549866E0,7.333363622E0
4.304366542E0,4.385729828E0,-5.906866608E0,1.019829254E0,7.427365007E0
4.314405542E0,6.595883789E0,-5.974376221E0,5.912704468E-1,8.918994054E0
4.324444542E0,8.613538055E0,-6.722071381E0,5.123844910E-1,1.093809030E1
4.334484542E0,1.067774551E1,-6.999743958E0,8.039781189E-1,1.279285135E1
4.344523542E0,1.182660645E1,-6.988966370E0,6.116281128E-1,1.375094033E1
4.354562542E0,1.169203629E1,-6.128555603E0,7.899073792E-1,1.322447957E1
4.364601542E0,1.049063461E1,-5.405259705E0,7.234455872E-1,1.182343523E1
4.374640542E0,8.907377014E0,-5.295088806E0,2.650987244E-1,1.036579028E1
4.384680542E0,7.673941956E0,-5.141059113E0,8.906478882E-2,9.237305152E0
4.394719542E0,7.062613220E0,-4.988975372E0,1.032852173E-1,8.647603633E0
4.404758542E0,7.293133850E0,-4.996160431E0,2.010319519E-1,8.842614673E0
4.414797542E0,7.793692932E0,-5.251828766E0,1.812730408E-1,9.399798659E0
4.424836542E0,8.169860687E0,-5.714366913E0,1.478924561E-1,9.971082441E0
4.434875542E0,8.348289642E0,-6.411467285E0,-2.245330811E-1,1.052859287E1
4.444915542E0,8.145311737E0,-7.008425903E0,-8.602610779E-1,1.077980455E1
4.454954542E0,7.903564453E0,-7.171736298E0,-7.000941467E-1,1.069533844E1
4.464993542E0,7.687413940E0,-7.036118317E0,1.520837402E-1,1.042240008E1
4.475032542E0,7.478897552E0,-6.560257874E0,1.167122955E0,1.001663955E1
4.485071542E0,7.543263702E0,-5.914201355E0,1.731898499E0,9.740537837E0
4.495111542E0,7.729177094E0,-5.229076080E0,1.935026093E0,9.530358922E0
4.505150542E0,8.113278351E0,-4.792733459E0,1.725761261E0,9.579865946E0
4.515189708E0,7.948920135E0,-4.765340424E0,8.234376526E-1,9.304399510E0
4.525228708E0,7.735314331E0,-5.212610321E0,3.420387268E-1,9.333990821E0
4.535267708E0,7.992479553E0,-6.130202179E0,3.909869385E-1,1.008027673E1
4.545307708E0,7.962691498E0,-6.840624847E0,8.743318176E-1,1.053390053E1
4.555346708E0,7.846832428E0,-7.044351196E0,1.531614990E0,1.065558574E1
4.565385708E0,7.784412231E0,-7.126829681E0,1.908381500E0,1.072523636E1
4.575424708E0,7.523355103E0,-7.165748749E0,2.015858002E0,1.058359630E1
4.585463708E0,7.213349762E0,-7.074887695E0,1.875000916E0,1.027628722E1
4.595503708E0,6.756649475E0,-6.912625122E0,1.645977173E0,9.805403564E0
4.605542708E0,6.299051056E0,-6.593788147E0,1.284778290E0,9.209057584E0
4.615581708E0,6.262077942E0,-6.220165100E0,9.488768005E-1,8.877186559E0
4.625620708E0,6.868017883E0,-5.994883575E0,7.131170654E-1,9.144224116E0
4.635659708E0,7.547005920E0,-5.965245209E0,4.046086121E-1,9.628351722E0
4.645699708E0,7.824828186E0,-6.035898285E0,9.175918579E-2,9.882733630E0
4.655738708E0,7.702682190E0,-6.019133148E0,-2.225871277E-1,9.778078636E0
4.665777708E0,7.748786316E0,-6.148913269E0,-5.689668274E-1,9.908407895E0
4.675816708E0,8.251441040E0,-6.441554718E0,-9.226812744E-1,1.050862727E1
4.685855708E0,9.128018188E0,-6.454877014E0,-1.312470703E0,1.125649735E1
4.695895708E0,1.016281631E1,-6.027216339E0,-1.366358643E0,1.189441500E1
4.705934708E0,1.054646851E1,-5.234165497E0,-8.500822449E-1,1.180453837E1
4.715973708E0,9.833052063E0,-4.508624268E0,-3.112028503E-1,1.082189692E1
4.726012708E0,8.790919189E0,-4.153712311E0,3.083587646E-2,9.722887277E0
4.736051708E0,8.064629517E0,-4.199517059E0,2.383044434E-1,9.095657303E0
4.746090708E0,7.780969391E0,-4.512067108E0,3.287164307E-1,9.000571579E0
4.756130708E0,7.846982117E0,-4.929099884E0,2.745291138E-1,9.270734612E0
4.766169708E0,8.103847961E0,-5.254523163E0,1.881587219E-1,9.660112274E0
4.776208708E0,8.261320496E0,-5.503305817E0,2.104623413E-1,9.928750457E0
4.786247708E0,8.350534973E0,-5.658832397E0,2.354603577E-1,1.009005748E1
4.796286708E0,8.344098358E0,-5.817951508E0,2.420466614E-1,1.017502451E1
4.806326708E0,8.106392670E0,-5.923931122E0,2.481838989E-1,1.004331406E1
4.816365708E0,7.673492889E0,-5.952671356E0,2.809657288E-1,9.715746556E0
4.826404708E0,7.204667816E0,-6.072422333E0,4.239184570E-1,9.431927597E0
4.836443708E0,6.789431305E0,-6.322252808E0,6.867718506E-1,9.302629391E0
4.846482708E0,6.489155731E0,-6.595883789E0,9.919871521E-1,9.305851040E0
4.856522708E0,6.452931061E0,-6.876849518E0,1.338366852E0,9.524841437E0
4.866561708E0,6.875951385E0,-7.163952484E0,1.727557526E0,1.007895717E1
4.876600708E0,7.589966583E0,-7.307803345E0,2.127974854E0,1.074894690E1
4.886639708E0,8.116571503E0,-7.271279297E0,2.545007629E0,1.119050041E1
4.896678708E0,8.297096100E0,-7.106022949E0,2.921175385E0,1.130798972E1
4.906718708E0,8.327782288E0,-6.769522705E0,3.152145081E0,1.118545547E1
4.916757708E0,8.203390961E0,-6.391858063E0,2.919678497E0,1.080166632E1
4.926796708E0,7.945177917E0,-6.136040039E0,2.334395599E0,1.030661158E1
4.936835708E0,7.660469971E0,-6.091283112E0,1.660047913E0,9.926846891E0
4.946874708E0,7.614216156E0,-6.107000427E0,1.077459412E0,9.820013273E0
4.956914708E0,7.991431732E0,-6.158193970E0,5.828878784E-1,1.010574551E1
4.966953708E0,8.424481201E0,-6.150260468E0,1.112187195E-1,1.043120113E1
4.976992708E0,8.757987671E0,-6.234235840E0,-3.987707520E-1,1.075765135E1
4.987031708E0,9.042396240E0,-6.286177826E0,-8.402027893E-1,1.104476809E1
4.997070708E0,9.258247375E0,-6.168672180E0,-1.133143616E0,1.118265064E1
5.007110708E0,9.236692200E0,-5.898633728E0,-1.284179535E0,1.103446780E1
5.017149708E0,9.019643555E0,-5.651497650E0,-1.321601715E0,1.072567138E1
5.027188708E0,8.577463074E0,-5.496120758E0,-1.250200195E0,1.026368436E1
5.037227708E0,8.123756561E0,-5.623206482E0,-1.224453735E0,9.955659634E0
5.047266708E0,7.932154999E0,-5.829627228E0,-1.272354126E0,9.925851176E0
5.057305708E0,7.960745544E0,-5.732778625E0,-1.338067474E0,9.900941620E0
5.067345708E0,8.118367767E0,-5.451214142E0,-1.276994476E0,9.861761796E0
5.077384708E0,8.098309479E0,-5.110821991E0,-5.613327026E-1,9.592612378E0
5.087423708E0,8.423583069E0,-5.091362457E0,-6.991960144E-1,9.867502139E0
5.097462708E0,8.824449463E0,-5.065765686E0,-7.137158203E-1,1.020011179E1
5.107501708E0,8.810079346E0,-4.836143188E0,-5.646258545E-1,1.006601119E1
5.117541708E0,8.282426605E0,-4.508175201E0,-2.203417969E-1,9.432432593E0
5.127580708E0,7.883057098E0,-4.553381195E0,-1.652563477E-1,9.105118296E0
5.137619708E0,7.652386780E0,-4.854704590E0,-3.204835510E-1,9.068069794E0
5.147658708E0,7.106022949E0,-4.923262024E0,-2.297721863E-1,8.647940007E0
5.157697708E0,6.870712280E0,-5.122048645E0,-2.218386841E-1,8.572705638E0
5.167737708E0,7.447462921E0,-5.645510101E0,-3.234773254E-1,9.350995981E0
5.177776708E0,8.124954071E0,-5.936954041E0,-1.746867371E-1,1.006443329E1
5.187815708E0,8.145910492E0,-5.698050842E0,2.366578674E-1,9.943824621E0
5.197854708E0,7.834557953E0,-5.388943634E0,6.968009949E-1,9.534492301E0
5.207893708E0,7.674989777E0,-5.398374023E0,8.012837219E-1,9.417535016E0
5.217933708E0,7.741301880E0,-5.662574615E0,5.340893555E-1,9.606131246E0
5.227972708E0,7.965385895E0,-6.046975250E0,1.347198486E-1,1.000157145E1
5.238011708E0,8.162525940E0,-6.383924561E0,-1.701960754E-1,1.036389354E1
5.248050708E0,8.264763336E0,-6.525380402E0,-6.168672180E-1,1.054833767E1
5.258089708E0,8.185128937E0,-6.286327515E0,-7.940986633E-1,1.035107927E1
5.268129708E0,8.143964539E0,-5.874982910E0,-8.306227112E-1,1.007618562E1
5.278168708E0,8.021818542E0,-5.386099548E0,-7.391629028E-1,9.690510971E0
5.288207708E0,8.027357025E0,-5.184917908E0,-7.405101013E-1,9.584893830E0
5.298246708E0,8.061935120E0,-5.217100983E0,-8.599617004E-1,9.641186372E0
5.308285708E0,7.871980133E0,-5.307812347E0,-8.876541138E-1,9.535663215E0
5.318325708E0,7.914641418E0,-5.493276672E0,-8.755293274E-1,9.673892132E0
5.328364708E0,8.353977814E0,-5.680088196E0,-9.214837646E-1,1.014403665E1
5.338403708E0,8.715326385E0,-5.728737030E0,-1.069226532E0,1.048420657E1
5.348442708E0,8.796906738E0,-5.698499908E0,-1.455573120E0,1.058192622E1
5.358481708E0,8.834179230E0,-5.644761658E0,-1.994602203E0,1.067166785E1
5.368521708E0,8.683742065E0,-5.542224884E0,-2.531236267E0,1.060805307E1
5.378560708E0,8.571625214E0,-5.501958618E0,-2.909349976E0,1.059285725E1
5.388599708E0,8.443940735E0,-5.406606903E0,-3.142415314E0,1.050744057E1
5.398638708E0,8.126900024E0,-5.213658142E0,-3.082689514E0,1.013566524E1
5.408677708E0,7.713010712E0,-5.134921875E0,-2.820135498E0,9.685614133E0
5.418716708E0,7.264992371E0,-5.181175690E0,-2.594404907E0,9.292773133E0
5.428756708E0,6.879094849E0,-5.218597870E0,-2.453996887E0,8.976514378E0
5.438795708E0,6.667734375E0,-5.270090790E0,-2.422861633E0,8.837578691E0
5.448834708E0,6.561006317E0,-5.303321686E0,-2.441123657E0,8.782431867E0
5.458873708E0,6.717730408E0,-5.407055969E0,-2.436333618E0,8.961019896E0
5.468912708E0,7.520511017E0,-5.687872009E0,-2.608924713E0,9.783479039E0
5.478952708E0,8.367300110E0,-5.856122131E0,-2.677482147E0,1.055816216E1
5.488991708E0,8.867260437E0,-5.782026215E0,-2.492017822E0,1.087521437E1
5.499030708E0,9.016350403E0,-5.539081421E0,-2.065704346E0,1.078161083E1
5.509069708E0,8.963809662E0,-5.281467133E0,-1.546434174E0,1.051832864E1
5.519108792E0,8.922196198E0,-5.169949036E0,-1.185983734E0,1.037981288E1
5.529148792E0,8.891959076E0,-5.085374908E0,-1.000968475E0,1.029222581E1
5.539187792E0,8.861871643E0,-5.007686462E0,-9.006770325E-1,1.021865509E1
5.549226792E0,8.818312225E0,-5.007387085E0,-8.473878479E-1,1.017617915E1
5.559265792E0,8.804391174E0,-4.998106384E0,-9.062155151E-1,1.016462483E1
5.569304792E0,8.852740631E0,-4.945715332E0,-1.120270386E0,1.020226066E1
5.579344792E0,8.626860352E0,-4.856500854E0,-1.270258484E0,9.981075929E0
5.589383792E0,8.280330963E0,-4.666246490E0,-1.299447784E0,9.593034020E0
5.599422792E0,8.042625275E0,-4.592150574E0,-1.356329498E0,9.360090700E0
5.609461792E0,8.039481812E0,-4.770429840E0,-1.467697906E0,9.462790593E0
5.619500792E0,8.302784271E0,-5.242098999E0,-1.495540009E0,9.932394902E0
5.629540792E0,8.605305176E0,-5.908662872E0,-1.394200745E0,1.053125680E1
5.639579792E0,8.849447479E0,-6.455625458E0,-1.213825836E0,1.102094342E1
5.649618792E0,8.899443512E0,-6.679859161E0,-1.065783691E0,1.117839470E1
5.659657792E0,8.311316528E0,-6.522087250E0,-7.283853149E-1,1.058990792E1
5.669696792E0,7.462731171E0,-6.165678406E0,-2.963836670E-1,9.684822663E0
5.679736792E0,6.599027252E0,-5.757028198E0,4.296066284E-2,8.757418568E0
5.689775792E0,5.894292755E0,-5.518125000E0,2.210902405E-1,8.077206912E0
5.699814792E0,5.702541504E0,-5.703140259E0,1.877096558E-1,8.067219058E0
5.709853792E0,6.156846771E0,-6.258934479E0,-1.431024170E-1,8.780746055E0
5.719892792E0,7.131470032E0,-6.875352631E0,-6.746470642E-1,9.928921758E0
5.729931792E0,8.068072357E0,-7.138056335E0,-1.100062408E0,1.082847067E1
5.739971792E0,8.636440430E0,-6.876550140E0,-1.431622925E0,1.113214217E1
5.750010792E0,9.003626862E0,-6.364465027E0,-1.650467834E0,1.114880064E1
5.760049792E0,9.157057800E0,-5.944588165E0,-1.723216553E0,1.105257035E1
5.770088792E0,9.063801727E0,-5.554948425E0,-1.643133087E0,1.075685084E1
5.780127792E0,8.781788177E0,-5.103487244E0,-1.541195068E0,1.027329878E1
5.790167792E0,8.343499603E0,-4.578528900E0,-1.523082733E0,9.638293082E0
5.800206792E0,8.042325897E0,-4.222569122E0,-1.653461609E0,9.232715263E0
5.810245792E0,8.009693756E0,-4.313729553E0,-1.871408386E0,9.287929052E0
5.820284792E0,8.193511505E0,-4.705165558E0,-2.223625946E0,9.706530073E0
5.830323792E0,8.517737274E0,-5.253175964E0,-2.483635254E0,1.031097231E1
5.840363792E0,8.865015106E0,-5.686524811E0,-2.664758606E0,1.086397697E1
5.850402792E0,8.913065186E0,-5.773643646E0,-2.646197205E0,1.094440732E1
5.860441792E0,8.607101440E0,-5.556894379E0,-2.421215057E0,1.052727660E1
5.870480792E0,8.075407104E0,-5.175936584E0,-1.915716248E0,9.781231424E0
5.880519792E0,7.494914246E0,-4.789290619E0,-1.279988251E0,8.986067778E0
5.890559792E0,7.264692993E0,-4.718787231E0,-8.469387817E-1,8.704023352E0
5.900598792E0,7.317533112E0,-4.985682220E0,-6.316864014E-1,8.877068534E0
5.910637792E0,7.381599884E0,-5.404062195E0,-6.093827820E-1,9.168601443E0
5.920676792E0,7.737409973E0,-6.056854706E0,-8.740324402E-1,9.864934603E0
5.930715792E0,8.274942169E0,-6.791676636E0,-1.136885834E0,1.076540983E1
5.940755792E0,8.494984589E0,-7.215595093E0,-1.217867432E0,1.121217092E1
5.950794792E0,8.512348480E0,-7.185657349E0,-1.156195679E0,1.119957752E1
5.960833792E0,8.828640747E0,-7.111860809E0,-1.159039764E0,1.139591307E1
5.970872792E0,8.662037201E0,-6.717281342E0,-9.925859070E-1,1.100627021E1
5.980911792E0,8.320597229E0,-6.313720551E0,-8.836125183E-1,1.048218377E1
5.990951792E0,7.750881958E0,-5.772895203E0,-7.702981567E-1,9.695145662E0
6.000990792E0,7.310797119E0,-5.292693787E0,-7.232958984E-1,9.054475081E0
6.011029792E0,7.163952484E0,-5.195695496E0,-7.978408813E-1,8.885607292E0
6.021068792E0,7.401059418E0,-5.351970520E0,-9.123527527E-1,9.178870110E0
6.031107792E0,7.998916168E0,-5.704188080E0,-1.157842255E0,9.892472906E0
6.041147792E0,8.605754242E0,-6.121370544E0,-1.528172150E0,1.067077755E1
6.051186792E0,8.658444672E0,-6.151308289E0,-1.676363983E0,1.075255570E1
6.061225792E0,8.522078247E0,-5.835914154E0,-1.787433014E0,1.048230072E1
6.071264792E0,8.355774078E0,-5.446723480E0,-1.869163055E0,1.014788291E1
6.081303792E0,8.311466217E0,-5.196294250E0,-1.870659943E0,9.979043703E0
6.091343792E0,8.211773529E0,-4.859794006E0,-1.976789246E0,9.744666131E0
6.101382792E0,8.537496185E0,-4.789140930E0,-2.150727539E0,1.002249175E1
6.111421792E0,8.759035492E0,-4.727169800E0,-1.818568268E0,1.011800512E1
6.121460792E0,9.848919067E0,-5.223687286E0,-2.691253510E0,1.146869483E1
6.131499792E0,1.022613464E1,-5.302722931E0,-3.087030487E0,1.192570574E1
6.141538792E0,1.009545639E1,-5.338648224E0,-2.877316589E0,1.177702659E1
6.151578792E0,9.729018402E0,-5.166655884E0,-2.576142883E0,1.131302984E1
6.161617792E0,9.536967773E0,-4.978796539E0,-2.284848633E0,1.099830453E1
6.171656792E0,9.475296021E0,-4.963228912E0,-2.211501160E0,1.092271089E1
6.181695792E0,9.092392273E0,-4.889881439E0,-2.033072205E0,1.052216329E1
6.191734792E0,8.247698822E0,-4.603975983E0,-1.996997223E0,9.654487486E0
6.201774792E0,7.104675751E0,-4.184847565E0,-1.641187134E0,8.407310026E0
6.211813792E0,6.295009460E0,-4.218377838E0,-1.670975189E0,7.759768925E0
6.221852792E0,6.676715698E0,-4.704716492E0,-2.571352844E0,8.562986934E0
6.231891792E0,7.328310699E0,-5.291346588E0,-2.653681641E0,9.420430599E0
6.241930792E0,7.945028229E0,-5.591472473E0,-2.462529144E0,1.002257890E1
6.251970792E0,7.510032806E0,-5.184019775E0,-2.116448822E0,9.367711001E0
6.262009792E0,6.235133972E0,-4.647535400E0,-1.790277100E0,7.980073499E0
6.272048792E0,5.128634949E0,-4.229305115E0,-1.588496704E0,6.834708477E0
6.282087792E0,4.326902161E0,-4.049978027E0,-1.416953430E0,6.093616443E0
6.292126792E0,3.763473816E0,-4.151766357E0,-1.267863464E0,5.745291708E0
6.302166792E0,3.653003540E0,-4.489314423E0,-1.246008911E0,5.920381496E0
6.312205792E0,4.006418610E0,-4.930596771E0,-1.438658295E0,6.513978223E0
6.322244792E0,4.793631592E0,-5.476661224E0,-1.622026978E0,7.456788419E0
6.332283792E0,5.342240753E0,-5.794450378E0,-1.704206085E0,8.063467606E0
6.342322792E0,5.759872284E0,-6.070925446E0,-1.656904449E0,8.530978657E0
6.352362792E0,6.416556702E0,-6.408323822E0,-1.614392853E0,9.211138822E0
6.362401792E0,7.308102722E0,-6.573580170E0,-1.368005219E0,9.924301483E0
6.372440792E0,8.169261932E0,-6.471492462E0,-1.029109955E0,1.047263685E1
6.382479792E0,8.861721954E0,-6.100563812E0,-8.110134888E-1,1.078910273E1
6.392518792E0,9.785301361E0,-5.749543762E0,-7.241940308E-1,1.137250338E1
6.402558792E0,1.055200699E1,-5.409450989E0,-6.689588928E-1,1.187663747E1
6.412597792E0,1.142289597E1,-5.391488342E0,-5.273533630E-1,1.264234157E1
6.422636792E0,1.263088394E1,-5.650300140E0,-5.330415344E-1,1.384735549E1
6.432675792E0,1.328652054E1,-5.533243561E0,-4.152365112E-1,1.439863999E1
6.442714792E0,1.267100052E1,-4.849315796E0,-1.002914429E-2,1.356724800E1
6.452754792E0,1.171853119E1,-4.170776825E0,1.579216003E-1,1.243962587E1
6.462793792E0,1.109238327E1,-3.852538605E0,-1.119671631E-1,1.174289389E1
6.472832792E0,1.026640091E1,-3.864962769E0,-6.276448059E-1,1.098775968E1
6.482871792E0,9.627679138E0,-4.129313049E0,-9.273216248E-1,1.051681307E1
6.492910792E0,9.191186829E0,-4.542304230E0,-1.305285645E0,1.033509621E1
6.502950792E0,8.823551331E0,-5.028792572E0,-1.629212036E0,1.028582251E1
6.512989792E0,8.423882446E0,-5.356760559E0,-1.799108734E0,1.014364192E1
6.523028792E0,7.467820587E0,-5.250182190E0,-1.684746552E0,9.282840529E0
6.533067792E0,6.583759003E0,-5.246739349E0,-1.444945221E0,8.541781026E0
6.543106792E0,6.230643311E0,-5.527555389E0,-1.312470703E0,8.431925284E0
6.553146792E0,5.771248627E0,-5.526806946E0,-1.276695099E0,8.092147805E0
6.563185792E0,6.874155121E0,-6.314319305E0,-1.338366852E0,9.429520812E0
6.573224792E0,8.215366058E0,-6.871011658E0,-1.537003784E0,1.081967750E1
6.583263792E0,9.258846130E0,-7.104526062E0,-1.453926544E0,1.176071531E1
6.593302792E0,1.007854156E1,-6.849456482E0,-1.224004669E0,1.224705032E1
6.603341792E0,9.685009918E0,-5.983507233E0,-9.428892517E-1,1.142325768E1
6.613381792E0,9.258397064E0,-5.461392975E0,-8.696914673E-1,1.078429843E1
6.623420792E0,8.754095764E0,-4.848118286E0,-9.157955933E-1,1.004873749E1
6.633459792E0,8.107141113E0,-4.187691650E0,-8.493338013E-1,9.164271182E0
6.643498792E0,7.588320007E0,-3.429518280E0,-8.650511169E-1,8.372126946E0
6.653537792E0,8.704848175E0,-4.396806793E0,-1.385069733E0,9.850112177E0
6.663577792E0,9.614955597E0,-5.297633514E0,-1.627415771E0,1.109778239E1
6.673616792E0,9.707762604E0,-5.667364655E0,-1.660496979E0,1.136296295E1
6.683655792E0,9.189240875E0,-5.804329834E0,-1.703307953E0,1.100152947E1
6.693694792E0,8.079149323E0,-5.668711853E0,-1.731449432E0,1.002022280E1
6.703733792E0,7.824229431E0,-6.029012604E0,-1.734892273E0,1.002882896E1
6.713773792E0,7.759563904E0,-6.317163391E0,-1.352138214E0,1.009681450E1
6.723812792E0,7.674690399E0,-6.435567169E0,-1.067130890E0,1.007254515E1
6.733851792E0,8.120912476E0,-6.683451691E0,-1.027762756E0,1.056759397E1
6.743890792E0,8.488098907E0,-6.639443207E0,-1.038839722E0,1.082632057E1
6.753929792E0,8.144862671E0,-6.029311981E0,-1.222807159E0,1.020718611E1
6.763969792E0,7.618557129E0,-5.404511261E0,-1.494192810E0,9.459585977E0
6.774008792E0,7.197183380E0,-5.079087982E0,-1.916464691E0,9.014955366E0
6.784047792E0,7.015012207E0,-5.256169739E0,-2.343825989E0,9.073656201E0
6.794086792E0,7.369924164E0,-5.777385864E0,-2.484982452E0,9.688607093E0
6.804125792E0,7.826774139E0,-6.233936462E0,-2.536924438E0,1.032261318E1
6.814165792E0,8.075107727E0,-6.520590363E0,-2.514471130E0,1.067932716E1
6.824204792E0,8.020321655E0,-6.536008301E0,-2.358944550E0,1.061176627E1
6.834243792E0,7.641459503E0,-6.436465302E0,-2.133663025E0,1.021628635E1
6.844282792E0,7.646249542E0,-6.521189117E0,-1.770967255E0,1.020428168E1
6.854321792E0,7.598798218E0,-6.430028687E0,-1.390159149E0,1.005084801E1
6.864361792E0,6.981032867E0,-5.860014038E0,-1.126557312E0,9.183883481E0
6.874400792E0,7.512727203E0,-5.807622986E0,-1.207538910E0,9.572236154E0
6.884439792E0,7.799381104E0,-5.274581451E0,-1.412013702E0,9.520784515E0
6.894478792E0,7.940387878E0,-4.855602722E0,-1.866618347E0,9.492676204E0
6.904517792E0,8.600365448E0,-4.821024628E0,-2.282603302E0,1.012021947E1
6.914557792E0,8.011040955E0,-3.707789612E0,-2.530936890E0,9.183143390E0
6.924596792E0,7.510182495E0,-3.115171967E0,-2.644850006E0,8.549992342E0
6.934635792E0,7.829019470E0,-3.512146454E0,-3.069067841E0,9.113061834E0
6.944674792E0,8.390801239E0,-4.422104187E0,-3.351829834E0,1.005958817E1
6.954713792E0,8.383466492E0,-5.227728882E0,-3.109783173E0,1.035772229E1
6.964753792E0,7.861052856E0,-5.793402557E0,-2.383194122E0,1.005182966E1
6.974792792E0,7.479496307E0,-6.730903015E0,-1.694775696E0,1.020392988E1
6.984831792E0,6.947502594E0,-7.772736511E0,-7.146139526E-1,1.044958843E1
6.994870792E0,6.062842255E0,-9.090296631E0,5.180726624E-1,1.093891897E1
7.004909792E0,5.756429443E0,-1.032882111E1,1.771865387E0,1.195661040E1
7.014949792E0,5.563780060E0,-1.055395294E1,2.529140625E0,1.219582402E1
7.024988792E0,5.644611969E0,-9.383686523E0,2.187550964E0,1.116694212E1
7.035027792E0,6.124364319E0,-7.347620544E0,1.195414124E0,9.639729296E0
7.045066792E0,7.246880035E0,-6.309229889E0,1.526824951E-2,9.608531894E0
7.055105792E0,7.878267059E0,-5.443130951E0,-5.046006775E-1,9.589024364E0
7.065145792E0,7.753276978E0,-4.660708008E0,-4.884342957E-1,9.059474106E0
7.075184792E0,7.814649353E0,-4.265679474E0,-4.999603271E-1,8.917103017E0
7.085223792E0,8.340206451E0,-4.171225891E0,-6.635700989E-1,9.348716188E0
7.095262792E0,9.302555237E0,-4.592599640E0,-8.472381592E-1,1.040900177E1
7.105301792E0,1.123368942E1,-5.725743256E0,-1.156794434E0,1.266167790E1
7.115340792E0,1.201102295E1,-6.177204437E0,-5.281018066E-1,1.351670886E1
7.125380792E0,1.164338745E1,-5.258265381E0,-2.118095398E-1,1.277742891E1
7.135419792E0,1.054467224E1,-3.730242920E0,-7.150630188E-1,1.120786064E1
7.145458792E0,9.737999725E0,-2.777773590E0,-1.487905884E0,1.023516139E1
7.155497792E0,8.426876221E0,-1.755100250E0,-2.430944824E0,8.944390000E0
7.165536792E0,7.982151031E0,-2.024390259E0,-2.555485840E0,8.622261820E0
7.175576792E0,8.947643280E0,-3.389102325E0,-1.970502319E0,9.768787756E0
7.185615792E0,9.777816925E0,-4.599335632E0,-6.363267517E-1,1.082425535E1
7.195654792E0,1.010069550E1,-5.353168030E0,5.156776428E-1,1.144318054E1
7.205693792E0,9.866881714E0,-5.518125000E0,1.080602875E0,1.135661749E1
7.215732792E0,9.806706848E0,-5.388793945E0,1.589245148E0,1.130204847E1
7.225772792E0,1.064496368E1,-5.780828705E0,2.079924774E0,1.229061916E1
7.235811792E0,1.178768738E1,-6.701264648E0,1.729204102E0,1.366918682E1
7.245850792E0,1.175475586E1,-7.084617462E0,4.998106384E-1,1.373375042E1
7.255889792E0,1.016416351E1,-6.968009949E0,-6.960525513E-1,1.234292800E1
7.265928792E0,5.632936249E0,-6.876999207E0,-7.933502197E-1,8.924824561E0
7.275968792E0,1.672472076E0,-7.286248169E0,-2.644999695E-1,7.480410113E0
7.286007792E0,2.096240845E0,-8.125403137E0,-8.616082764E-1,8.435565816E0
7.296046792E0,3.988755341E0,-8.398285675E0,-1.675166473E0,9.447092365E0
7.306085792E0,5.548960876E0,-8.268804932E0,-1.758393402E0,1.011217332E1
7.316124792E0,6.338868256E0,-8.121960297E0,-1.578168182E0,1.042296045E1
7.326164792E0,6.944808197E0,-7.449408875E0,-1.429676971E0,1.028435850E1
7.336203792E0,7.515720978E0,-6.439758453E0,-1.517394562E0,1.001294347E1
7.346242792E0,8.133336639E0,-5.270839233E0,-1.533710632E0,9.812501181E0
7.356281792E0,8.571176147E0,-4.243974609E0,-1.429527283E0,9.670570267E0
7.366320792E0,9.092991028E0,-3.486399994E0,-1.332528992E0,9.829196522E0
7.376360792E0,9.383836212E0,-3.274291077E0,-1.160087585E0,1.000615647E1
7.386399792E0,8.791068878E0,-3.392694855E0,-9.241781616E-1,9.468229807E0
7.396438792E0,8.039930878E0,-3.647465057E0,-6.944059753E-1,8.855884457E0
7.406477792E0,7.664212189E0,-4.057013397E0,-5.460644531E-1,8.688940820E0
7.416516792E0,7.476352844E0,-4.586312714E0,-4.204756165E-1,8.781054373E0
7.426556792E0,7.233557739E0,-5.024301910E0,-1.998344421E-1,8.809534668E0
7.436595792E0,6.919361115E0,-5.343288574E0,1.856140137E-2,8.742347256E0
7.446634792E0,6.780300293E0,-5.633535004E0,2.475851440E-1,8.818757685E0
7.456673792E0,6.842720490E0,-6.152505798E0,6.536906433E-1,9.225153806E0
7.466712792E0,6.992109833E0,-7.202422485E0,1.122216339E0,1.010068607E1
7.476752792E0,7.642507324E0,-8.567882996E0,6.635700989E-1,1.150029837E1
7.486791792E0,8.830437012E0,-9.771230621E0,-1.541793823E-2,1.317018616E1
7.496830792E0,1.004261627E1,-1.066532135E1,-4.004173279E-1,1.465481338E1
7.506869792E0,1.071681427E1,-1.156929153E1,-6.586303711E-1,1.578392881E1
7.516909292E0,1.080797470E1,-1.147887955E1,-3.799099731E-1,1.577090119E1
7.526949292E0,9.889335022E0,-9.742041321E0,1.833686829E-1,1.388308108E1
7.536988292E0,8.502618713E0,-7.492369537E0,4.806504822E-1,1.134288989E1
7.547027292E0,6.464157715E0,-5.227130127E0,9.060658264E-1,8.362366866E0
7.557066292E0,5.491330719E0,-3.834875336E0,1.289867706E0,6.820904676E0
7.567105292E0,4.832700348E0,-2.871628418E0,1.598226471E0,5.844276711E0
7.577145292E0,4.310586090E0,-2.120939484E0,1.762434998E0,5.117197852E0
7.587184292E0,4.171674957E0,-1.650318146E0,1.740730133E0,4.812126695E0
7.597223292E0,4.577930145E0,-1.461560669E0,1.647923126E0,5.080280960E0
7.607262292E0,5.213508453E0,-1.428928528E0,1.247505798E0,5.547862458E0
7.617301292E0,6.066584473E0,-1.690883789E0,6.101312256E-1,6.327305530E0
7.627341292E0,7.314539337E0,-2.385289764E0,1.686991882E-1,7.695489094E0
7.637380292E0,8.881780243E0,-3.173999634E0,4.156855774E-1,9.441032171E0
7.647419292E0,1.067430267E1,-4.063899078E0,4.200265503E-1,1.142945474E1
7.657458292E0,1.258971954E1,-4.712500305E0,1.664538574E-1,1.344382402E1
7.667497292E0,1.313683182E1,-4.628524933E0,-4.043092346E-1,1.393424053E1
7.677537292E0,1.173394913E1,-4.082011414E0,-1.357227631E0,1.249761762E1
7.687576292E0,9.886341248E0,-3.628005524E0,-1.870360565E0,1.069581301E1
7.697615292E0,7.920479279E0,-3.068618774E0,-2.384840698E0,8.822577761E0
7.707654292E0,6.095474396E0,-2.569257202E0,-2.886148224E0,7.217045258E0
7.717693292E0,4.617747345E0,-2.152224426E0,-3.128045197E0,5.978321443E0
7.727733292E0,3.173251190E0,-1.758842468E0,-3.209625549E0,4.844042332E0
7.737772292E0,2.494712219E0,-1.481768646E0,-2.680026855E0,3.949907761E0
7.747811292E0,1.849703522E0,-1.305734711E0,-1.832040253E0,2.912510556E0
7.757850292E0,1.329684906E0,-9.737251282E-1,-9.837542725E-1,1.919368397E0
7.767889292E0,5.980064392E-1,-6.747967529E-1,-2.107617188E-1,9.259497077E-1
7.777929292E0,5.628295898E-2,-3.701802063E-1,7.370672607E-1,8.267220231E-1
7.787968292E0,-9.165440369E-1,-3.588038635E-1,2.164498901E0,2.377782302E0
7.798007292E0,-1.898801422E0,-4.252656555E-1,4.339026947E0,4.755360403E0
7.808046292E0,-1.956281891E0,-1.022224274E0,6.165678406E0,6.548860321E0
7.818085292E0,-7.822732544E-1,-2.554737396E0,6.158343658E0,6.712959945E0
7.828124292E0,8.454418945E-1,-4.886438599E0,5.157674561E0,7.154974567E0
7.838164292E0,2.663860474E0,-7.304360504E0,5.740861816E0,9.664746732E0
7.848203292E0,6.308631134E0,-9.710906067E0,7.465126190E0,1.377783120E1
7.858242292E0,1.357362350E1,-1.322305252E1,9.256151733E0,2.108954049E1
7.868281292E0,2.578073868E1,-1.761596741E1,1.090153015E1,3.307283106E1
7.878321292E0,3.864094574E1,-2.043595322E1,1.091694809E1,4.505475144E1
7.888360292E0,4.645290070E1,-2.285671921E1,9.904902649E0,5.271061271E1
7.898399292E0,4.739459244E1,-2.447215988E1,8.590036926E0,5.402705559E1
7.908438292E0,4.795832016E1,-2.529649567E1,6.518794098E0,5.461142593E1
7.918477292E0,4.538606918E1,-2.508962585E1,4.027973785E0,5.201547053E1
7.928517292E0,4.208498383E1,-2.372087219E1,5.403762817E-1,4.831270690E1
7.938556292E0,4.254587540E1,-2.205483673E1,-2.270927582E0,4.797629048E1
7.948595292E0,3.788636490E1,-1.733500168E1,-2.858156433E0,4.176180057E1
7.958634292E0,2.818399109E1,-1.235830078E1,-1.666185150E0,3.081949261E1
7.968673292E0,2.183075272E1,-9.338181152E0,-9.092092896E-1,2.376152463E1
7.978712292E0,1.729383728E1,-7.017706604E0,-4.739144897E-1,1.866948336E1
7.988752292E0,1.363544495E1,-5.120701447E0,-1.408570862E-1,1.456594600E1
7.998791292E0,1.048270111E1,-3.586841125E0,-2.619552612E-2,1.107940152E1
8.008830292E0,7.484885101E0,-2.508782959E0,-1.347198486E-3,7.894143318E0
8.018869292E0,4.983586578E0,-1.562899933E0,-1.573228455E-1,5.225279118E0
8.028908292E0,-1.663041687E0,-3.249742126E-1,-2.655328217E0,3.149933940E0
8.038948292E0,-1.555205933E1,1.273401947E0,-9.227860565E0,1.812847242E1
8.048987292E0,-1.075558365E1,1.952689362E0,-1.673804306E1,1.999143969E1
8.059026292E0,-5.525609436E0,2.218835907E0,-2.029195267E1,2.114755152E1
8.069065292E0,-3.431015167E0,3.082839203E0,-1.346240479E1,1.423067480E1
8.079104292E0,-2.832409973E0,4.270619202E0,-7.756121063E0,9.296136217E0
8.089144292E0,-1.783690796E0,6.760242004E0,-3.788322144E0,7.951968906E0
8.099183292E0,-2.032323761E0,9.485474854E0,-5.828878784E0,1.131726119E1
8.109222292E0,-3.106639709E0,9.040749664E0,-8.881480865E0,1.304864235E1
8.119261292E0,-3.635040894E0,6.090834045E0,-5.467829590E0,8.955944511E0
8.129300292E0,-3.520678711E0,3.799249420E0,-2.361638947E0,5.692698240E0
8.139340292E0,-3.670666809E0,2.282453613E0,-1.710343323E0,4.648511977E0
8.149379292E0,-3.580554199E0,1.232985992E0,-1.036744080E0,3.926252809E0
8.159418292E0,-2.954705658E0,5.987548828E-1,-7.538323975E-1,3.107580444E0
8.169457292E0,-2.243085480E0,1.899549866E-1,-7.237449646E-1,2.364597670E0
8.179496292E0,-1.648970947E0,-2.200424194E-2,-6.164181519E-1,1.760556932E0
8.189536292E0,-1.177750854E0,-1.517843628E-1,-4.662803650E-1,1.275755834E0
8.199575292E0,-8.202941895E-1,-2.118095398E-1,-4.128414917E-1,9.424351095E-1
8.209614292E0,-5.788462830E-1,-2.869532776E-1,-2.171983337E-1,6.816012903E-1
8.219653292E0,-3.635939026E-1,-3.504212952E-1,-8.382568359E-2,5.118811926E-1
8.229692292E0,-2.505789185E-1,-4.245172119E-1,-4.340972900E-2,4.948626700E-1
8.239732292E0,-1.941462708E-1,-5.685177612E-1,2.739303589E-2,6.013780822E-1
8.249771292E0,-1.272354126E-1,-6.896159363E-1,4.176315308E-2,7.024977941E-1
8.259810292E0,1.197509766E-2,-7.438032532E-1,6.271957397E-2,7.465389657E-1
8.269849292E0,2.335144043E-1,-7.285350037E-1,8.023315430E-2,7.692396165E-1
8.279888292E0,4.885839844E-1,-7.506889343E-1,4.864883423E-2,8.970032859E-1
8.289928292E0,8.235873413E-1,-8.478369141E-1,1.272354126E-1,1.188828159E0
8.299967292E0,1.253792725E0,-9.704319763E-1,1.727407837E-1,1.594858550E0
8.310006292E0,1.818418579E0,-1.314117279E0,3.384461975E-1,2.268941643E0
8.320045292E0,2.439327393E0,-1.598226471E0,3.849993896E-1,2.941576195E0
8.330084292E0,2.839744720E0,-1.786684570E0,3.478765869E-1,3.373041647E0
8.340124292E0,2.768492889E0,-2.048639832E0,4.562512207E-1,3.474139205E0
8.350163292E0,2.376158752E0,-2.212848358E0,3.228785706E-1,3.262986185E0
8.360202292E0,1.674567719E0,-2.195484467E0,1.191522217E-1,2.763788403E0
8.370241292E0,1.084794159E0,-2.138453064E0,1.547781372E-1,2.402855831E0
8.380280292E0,6.500981140E-1,-2.049837341E0,2.900967407E-1,2.169934746E0
8.390320292E0,3.276686096E-1,-1.908082123E0,4.754113770E-1,1.993529554E0
8.400359292E0,1.591191101E-1,-1.689835968E0,5.780978394E-1,1.793059286E0
8.410398292E0,3.312611389E-1,-1.491348724E0,8.277786255E-1,1.737547816E0
8.420437292E0,1.197210388E0,-1.322200470E0,1.165775757E0,2.130858961E0
8.430476292E0,2.468516693E0,-1.426383820E0,1.403780823E0,3.177852429E0
8.440516292E0,4.569846954E0,-1.852697296E0,2.231559448E0,5.412563720E0
8.450555292E0,1.141286682E1,-2.722239075E0,5.034031677E0,1.276736424E1
8.460594292E0,3.006917084E1,-4.851261749E0,8.338709564E0,3.157885135E1
8.470633292E0,5.855568283E1,-9.818681946E0,1.302471497E1,6.078501219E1
8.480672292E0,6.280040588E1,-1.036908737E1,1.686288345E1,6.584653211E1
8.490712292E0,5.464820847E1,-2.182910614E0,1.889386002E1,5.786337126E1
8.500751292E0,5.906103195E1,5.045557709E0,1.835108871E1,6.205179776E1
8.510790292E0,5.254163910E1,6.178102570E0,1.054377411E1,5.394408182E1
8.520828917E0,3.959476227E1,4.504432983E0,3.416195984E0,3.999631871E1
8.530867917E0,2.807022766E1,2.087558899E0,9.547146606E-1,2.816393196E1
8.540907917E0,2.033461395E1,-1.060843964E0,1.112785950E0,2.039265081E1
8.550946917E0,5.529201965E0,-1.623299332E1,1.143696671E1,2.061277162E1
8.560985917E0,1.225726089E1,-1.458327393E1,5.852978668E0,1.992911645E1
8.571024917E0,1.634496048E1,-9.533973999E0,-5.569917297E0,1.972506963E1
8.581063917E0,6.363716583E0,-2.898123322E0,-3.404909454E1,3.475970148E1
8.591103917E0,-4.236190796E0,-4.874613190E0,-1.741538452E1,1.857425057E1
8.601142917E0,1.397942963E0,-5.336702271E0,-1.758243713E0,5.790168962E0
8.611181917E0,5.789211273E0,9.752968597E0,2.502196655E0,1.161448887E1
8.621220917E0,1.156225616E1,-1.162033539E0,4.066144409E0,1.231136142E1
8.631259917E0,1.579500412E1,4.738695831E0,1.316946396E1,2.110384264E1
8.641299917E0,1.661305298E1,1.031624725E1,1.230875381E1,2.310679353E1
8.651338917E0,1.104717728E1,8.242160339E0,6.481222229E0,1.523087569E1
8.661377917E0,2.489473114E0,9.186995544E0,7.824229431E-1,9.550421414E0
8.671416917E0,-3.766617279E0,1.134460876E1,-9.726324005E0,1.541067592E1
8.681455917E0,-1.889371033E0,6.803352356E0,-1.720013214E1,1.859300599E1
8.691495917E0,1.361269226E0,2.414928131E0,-1.449555634E1,1.475825482E1
8.701534917E0,4.129612427E0,4.577481079E-1,-7.939489746E0,8.960955839E0
8.711573917E0,5.817652130E0,-7.529342651E-2,-3.260519714E0,6.669462813E0
8.721612917E0,5.849685516E0,-2.179467773E-1,-1.242117004E0,5.984076879E0
8.731651917E0,6.035149841E0,-7.810757446E-1,7.828720093E-2,6.085987333E0
8.741691917E0,5.581593018E0,-9.865983582E-1,9.105564880E-1,5.740790020E0
8.751730917E0,4.963827667E0,-7.982899475E-1,1.019230499E0,5.129881359E0
8.761769917E0,5.346132660E0,-5.634283447E-1,1.109642487E0,5.489070264E0
8.771808917E0,7.095395050E0,-2.454895020E-1,2.314487000E0,7.467378796E0
8.781847917E0,9.727371826E0,-1.284329224E-1,4.050277405E0,1.053769447E1
8.791887917E0,1.244452148E1,-4.459226990E-1,5.360353088E0,1.355722491E1
8.801926917E0,1.485495895E1,-7.976911926E-1,5.650150452E0,1.591321202E1
8.811965917E0,1.603091354E1,-1.327888641E0,4.974156189E0,1.683733076E1
8.822004917E0,1.453821762E1,-2.159858551E0,2.860850830E0,1.497361773E1
8.832043917E0,1.223720261E1,-2.858904877E0,6.629713440E-1,1.258419627E1
8.842083917E0,1.075034454E1,-3.347488861E0,-2.647993469E-1,1.126258000E1
8.852122917E0,9.843679962E0,-3.809577942E0,-9.499246216E-1,1.059779581E1
8.862161917E0,9.572593689E0,-4.023932190E0,-1.459015961E0,1.048595765E1
8.872200917E0,9.369765472E0,-3.568279724E0,-1.662442932E0,1.016311181E1
8.882239917E0,9.106463013E0,-2.784958649E0,-1.526525574E0,9.644373676E0
8.892279917E0,7.764803009E0,-2.602637787E0,2.575693817E0,8.584875530E0
8.902318917E0,7.070546722E0,-2.339634705E-1,7.516619110E0,1.032215737E1
8.912357917E0,7.204218750E0,2.245779877E0,8.037386169E0,1.102469371E1
8.922396917E0,5.905070343E0,3.504662018E0,1.025352768E1,1.234047574E1
8.932435917E0,3.737427979E0,4.571493530E0,1.326825851E1,1.452286490E1
8.942475917E0,7.592211914E-1,4.485123138E0,1.374980713E1,1.448274637E1
8.952514917E0,-2.055076447E0,4.386178894E0,1.202539307E1,1.296425790E1
8.962553917E0,-4.938380585E0,4.174519043E0,9.965077515E0,1.187926689E1
8.972592917E0,-8.058641968E0,3.209026794E0,8.080346832E0,1.185460114E1
8.982631917E0,-8.032296753E0,2.445764008E0,5.918841705E0,1.027288858E1
8.992671917E0,-4.791685638E0,1.210532684E0,3.270099792E0,5.926144893E0
9.002710917E0,-2.579885101E0,4.969665527E-2,1.371747437E0,2.922322351E0
9.012749917E0,-3.281176758E-1,-1.090332642E0,1.335073700E0,1.754681812E0
9.022788917E0,3.604055328E0,-1.882185974E0,2.113455048E0,4.582415421E0
9.032827917E0,1.270123764E1,-1.839075623E0,4.714446259E0,1.367222148E1
9.042867917E0,3.372486877E1,-1.287472687E0,1.004620880E1,3.521293329E1
9.052906917E0,6.316295197E1,-8.189469910E-1,1.288116348E1,6.446823674E1
9.062945917E0,8.203465805E1,1.174607391E0,9.897717590E0,8.263794309E1
9.072984917E0,7.367184860E1,3.658392334E0,7.553891602E0,7.414840787E1
9.083023917E0,5.933451324E1,3.849993896E0,2.144739990E0,5.949795647E1
9.093063917E0,5.125177139E1,2.886746979E0,-4.963677979E-1,5.133540455E1
9.103102917E0,3.921829514E1,1.411265259E0,-7.653584290E-1,3.925114159E1
9.113141917E0,2.663366501E1,5.918692017E-1,-3.960763550E-1,2.664318482E1
9.123180917E0,1.969514374E1,2.760260010E-1,-1.924398193E1,2.753735132E1
9.133219917E0,1.844359634E1,-3.720812531E0,-5.607070038E1,5.914333549E1
9.143259917E0,1.645722702E1,-7.182962952E0,-1.734757553E1,2.496745191E1
9.153298917E0,1.217867432E1,-6.042783966E0,-6.924001465E0,1.525703583E1
9.163337917E0,3.695664825E0,-4.922513580E0,-1.438807983E0,6.321332681E0
9.173376917E0,3.980223083E0,-3.135829010E0,1.625320129E0,5.321396893E0
9.183415917E0,5.238207092E0,-1.847009125E0,3.367397461E0,6.495353871E0
9.193455917E0,5.696553955E0,-1.122964783E0,4.440815277E0,7.309761774E0
9.203494917E0,4.131259003E0,-2.023791504E-1,4.726271667E0,6.280597276E0
9.213533917E0,1.677411804E0,1.115779724E0,5.284311218E0,5.655317834E0
9.223572917E0,4.818479919E-1,2.220183105E0,5.409001923E0,5.866744609E0
9.233611917E0,-1.233734436E0,2.550546112E0,5.281467133E0,5.993436510E0
9.243651917E0,-3.654350739E0,2.185155945E0,5.811215515E0,7.204124623E0
9.253690917E0,-5.652545471E0,1.428479462E0,5.275030518E0,7.862427795E0
9.263729917E0,-7.941735077E0,6.318360901E-1,3.442541199E0,8.678793855E0
9.273768917E0,-1.025083328E1,-6.990463257E-1,-8.529263306E-1,1.030998216E1
9.283807917E0,-1.315165100E1,-2.361040192E0,-7.274273071E0,1.521366108E1
9.293847917E0,-1.335118607E1,-2.927162933E0,-9.564660187E0,1.668248113E1
9.303886917E0,-1.124341919E1,-2.572700043E0,-9.518705750E0,1.495456518E1
9.313925917E0,-9.766440582E0,-2.373614044E0,-9.295519867E0,1.369029199E1
9.323964917E0,-7.544910278E0,-1.572480011E0,-8.319699097E0,1.134088875E1
9.334003917E0,-4.550686798E0,-8.101153564E-1,-6.707102509E0,8.145566971E0
9.344043917E0,-2.297272797E0,-4.993615723E-1,-4.974006500E0,5.501596582E0
9.354082917E0,-9.970765686E-1,-4.375401306E-1,-3.425626373E0,3.594512359E0
9.364121917E0,-4.972659302E-1,-4.799020386E-1,-2.124232635E0,2.233818180E0
9.374160917E0,-2.507286072E-1,-5.385800171E-1,-1.021775208E0,1.181929712E0
9.384199917E0,-9.385482788E-2,-5.614823914E-1,-5.631289673E-1,8.007405562E-1
9.394239917E0,-1.082249451E-1,-5.294490051E-1,-3.282673645E-1,6.322881862E-1
9.404278917E0,-5.089416504E-2,-4.876858521E-1,-1.281335449E-1,5.067996761E-1
9.414317917E0,9.729766846E-3,-4.569996643E-1,-2.784210205E-2,4.579503731E-1
9.424356917E0,1.425036621E-1,-4.926255798E-1,1.314266968E-1,5.293961015E-1
9.434395917E0,2.642005920E-1,-5.138813782E-1,2.661465454E-1,6.361682225E-1
9.444435917E0,3.225791931E-1,-5.360353088E-1,3.284170532E-1,7.065755083E-1
9.454474917E0,5.788462830E-1,-6.460565186E-1,4.541555786E-1,9.791370354E-1
9.464513917E0,1.348994751E0,-8.909472656E-1,6.242019653E-1,1.732974888E0
9.474552917E0,2.126627655E0,-1.109043732E0,7.294331360E-1,2.506909628E0
9.484591917E0,2.724634094E0,-1.214574280E0,7.003935242E-1,3.064208335E0
9.494631917E0,3.148552551E0,-1.243015137E0,5.456153870E-1,3.428726578E0
9.504670917E0,3.504512329E0,-1.244961090E0,3.951782227E-1,3.740013450E0
9.514709917E0,3.649111633E0,-1.172362061E0,3.543132019E-1,3.849153980E0
9.524748667E0,3.785478058E0,-1.099912720E0,3.830534363E-1,3.960603748E0
9.534787667E0,4.641248474E0,-1.097667389E0,6.346801758E-1,4.811328301E0
9.544827667E0,6.046226807E0,-1.199605408E0,1.038989410E0,6.251032773E0
9.554866667E0,8.119265900E0,-1.437460785E0,1.695823517E0,8.418110813E0
9.564905667E0,1.217118988E1,-1.882036285E0,2.623893585E0,1.259224925E1
9.574944667E0,2.075089828E1,-2.846780090E0,4.040996704E0,2.133151638E1
9.584983667E0,3.406990128E1,-4.006568298E0,4.255500641E0,3.456761560E1
9.595023667E0,4.847115372E1,-3.748504944E0,4.729864197E0,4.884542606E1
9.605062667E0,6.187877243E1,-1.261277161E0,6.007307739E0,6.218248181E1
9.615101667E0,6.904092865E1,3.482657776E0,6.423143005E0,6.942647550E1
9.625140667E0,6.372548218E1,6.086942139E0,6.456373901E0,6.434028837E1
9.635179667E0,4.764472229E1,6.000122681E0,6.451134796E0,4.845243208E1
9.645219667E0,3.386587555E1,4.776118011E0,3.756887512E0,3.440672948E1
9.655258667E0,2.541879135E1,3.713028717E0,1.997745667E0,2.576611193E1
9.665297667E0,1.951551727E1,3.101849670E0,1.314117279E0,1.980413568E1
9.675336667E0,1.572689575E1,2.656525726E0,9.369017029E-1,1.597717634E1
9.685375667E0,1.318802536E1,2.285597076E0,6.283932495E-1,1.339935987E1
9.695415667E0,1.124282043E1,2.110311584E0,3.755690002E-1,1.144532561E1
9.705454667E0,9.646839294E0,1.930685120E0,1.169068909E-1,9.838837361E0
9.715493667E0,8.292755127E0,1.716779938E0,-7.080276489E-2,8.468892134E0
9.725532667E0,6.724017334E0,1.509161682E0,-1.935475159E-1,6.894014703E0
9.735571667E0,2.263892212E0,5.536985779E-1,-2.484533386E0,3.406566631E0
9.745611667E0,-3.616180115E0,-5.998027039E-1,-6.639143829E0,7.583848145E0
9.755650667E0,-5.884562988E0,-7.493417358E-1,-2.104713226E1,2.186712992E1
9.765689667E0,-4.587959290E0,-1.737736359E0,-2.700893463E1,2.745089521E1
9.775728667E0,-2.800675964E-1,-2.001936951E0,-1.187854843E1,1.204931958E1
9.785767667E0,2.297871552E0,-1.589993591E0,-2.819536743E0,3.969644913E0
9.795807667E0,3.295397186E0,-6.688092041E-1,3.246898041E0,4.674322973E0
9.805846667E0,3.341501312E0,6.527925110E-1,6.209088135E0,7.081281279E0
9.815885667E0,1.788181458E0,1.196761322E0,5.019062805E0,5.460844443E0
9.825924667E0,-1.053359528E0,7.702981567E-1,1.897304535E0,2.302757052E0
9.835963667E0,-2.486329651E0,2.131567383E-1,4.849914551E-1,2.542142333E0
9.846003667E0,-2.727627869E0,-7.334747314E-2,7.557783508E-1,2.831348540E0
9.856042667E0,-2.539020081E0,-1.896556091E-1,6.768923950E-1,2.634535165E0
9.866081667E0,-1.789828033E0,-2.475851440E-1,5.038522339E-1,1.875806458E0
9.876120667E0,-1.089733887E0,-1.977388000E-1,5.780978394E-1,1.249326894E0
9.886159667E0,-7.946974182E-1,1.002914429E-2,6.021977234E-1,9.971392422E-1
9.896199667E0,-5.912704468E-1,1.969903564E-1,7.590715027E-1,9.821382224E-1
9.906238667E0,-4.215234375E-1,4.926255798E-1,1.348395996E0,1.496173029E0
9.916277667E0,6.408174133E-1,8.881031799E-1,2.066452789E0,2.338717885E0
9.926316667E0,6.819818115E0,1.334175568E0,3.123255157E0,7.618705031E0
9.936355667E0,2.268143372E1,9.954299927E-1,7.184759216E0,2.381300236E1
9.946395667E0,3.926215393E1,3.519181824E-1,9.639953613E0,4.042980687E1
9.956434667E0,4.408662140E1,-3.044668579E-1,6.877897339E0,4.462094080E1
9.966473667E0,3.589640305E1,-5.545967102E-1,3.576662292E0,3.607841241E1
9.976512667E0,2.320818832E1,-1.010099487E0,8.318202209E-1,2.324504745E1
9.986551667E0,1.558289520E1,-1.456321564E0,-4.628375244E-1,1.565764075E1
9.996591667E0,1.023242157E1,-1.535506897E0,-2.140997772E0,1.056617736E1
1.000663067E1,6.821315002E0,-6.571334839E-1,-2.674338684E0,7.356238861E0
1.001666967E1,4.653672638E0,1.338217163E-1,-3.337459717E0,5.728281997E0
1.002670867E1,3.178789673E0,1.186432800E0,-3.499572601E0,4.874354826E0
1.003674767E1,2.271376648E0,2.237996063E0,-2.049687653E0,3.790646083E0
1.004678767E1,1.624421997E0,2.878214722E0,-6.171665955E-1,3.362106693E0
1.005682667E1,1.152752838E0,3.708837433E0,9.705816650E-1,4.003291518E0
1.006686567E1,-1.005608826E0,4.621788940E0,8.288264465E-1,4.801992857E0
1.007690467E1,-2.614912262E0,5.005441132E0,-1.004411316E-1,5.648211706E0
1.008694367E1,-2.494562531E0,4.958289185E0,-2.580633545E-1,5.556444056E0
1.009698367E1,-7.701484680E-1,4.715943146E0,5.134323120E-2,4.778690673E0
1.010702267E1,1.903890839E0,4.579127655E0,8.903485107E-1,5.038445284E0
1.011706167E1,4.569397888E0,4.280348969E0,2.149829407E0,6.619860333E0
1.012710067E1,6.137985992E0,3.505859528E0,3.193608856E0,7.756613990E0
1.013713967E1,5.830675049E0,2.420466614E0,3.526666260E0,7.231376429E0
1.014717967E1,4.444557495E0,1.239123230E0,3.325484619E0,5.687562365E0
1.015721867E1,2.874771881E0,3.544628906E-1,2.590662689E0,3.886063623E0
1.016725767E1,1.931882629E0,-3.064128113E-1,1.895807648E0,2.723994483E0
1.017729667E1,1.131646729E0,-7.819738770E-1,1.284478912E0,1.882018475E0
1.018733567E1,8.502319336E-1,-1.113684082E0,-7.985893250E-1,1.612740365E0
1.019737567E1,1.205143890E0,-1.475182343E0,-2.348017273E0,3.023527717E0
1.020741467E1,2.312541046E0,-2.169738007E0,-2.358046417E0,3.951707481E0
1.021745367E1,7.816894684E0,-3.129242706E0,-1.131796417E0,8.495702769E0
1.022749267E1,4.021851517E1,-6.186485138E0,5.096451874E0,4.100945479E1
1.023753167E1,7.461189377E1,-1.147259262E1,1.268492157E1,7.654712476E1
1.024757167E1,5.357194656E1,-8.258326721E0,1.479493378E1,5.618757411E1
1.025761067E1,6.533957565E1,-3.365301819E0,1.833312607E1,6.794622075E1
1.026764967E1,7.876410919E1,-8.143066406E-1,1.644495255E1,8.046666674E1
1.027768867E1,7.504524261E1,5.399272156E-1,1.348126556E1,7.624843921E1
1.028772867E1,5.189737885E1,1.071471863E0,8.854836273E0,5.265827673E1
1.029776767E1,3.083842117E1,6.536906433E-1,5.508095856E0,3.133328345E1
1.030780667E1,2.134740784E1,6.499484253E-1,3.218756561E0,2.159848717E1
1.031784567E1,1.509146713E1,7.966433716E-1,-6.686146088E0,1.652548246E1
1.032788467E1,6.552623749E0,4.481680298E-1,-5.121090637E1,5.163036572E1
1.033792467E1,9.383387146E0,-2.550546112E0,-1.328262863E1,1.646151461E1
1.034796367E1,8.288863220E0,-2.681074677E0,-1.576820984E0,8.853235528E0
1.035800267E1,-3.997137909E0,-2.095791779E0,-4.783303070E0,6.576430863E0
1.036804167E1,-1.051458481E1,-2.771935730E0,-2.700384521E0,1.120411522E1
1.037808067E1,-8.274044037E0,-3.197949829E0,-8.165519714E-1,8.908055060E0
1.038812067E1,-5.668711853E0,-2.458487549E0,4.547543335E-1,6.195583637E0
1.039815967E1,-6.195017395E0,1.097218323E-1,1.205443268E0,6.312160714E0
1.040819867E1,-4.617447968E0,3.882326660E0,2.034569092E0,6.366534176E0
1.041823767E1,-4.219275970E0,6.136189728E0,1.776505737E0,7.655787793E0
1.042827667E1,-4.779560852E0,7.575147400E0,2.089355164E0,9.197416217E0
1.043831667E1,-5.642366638E0,7.745044098E0,3.451971588E0,1.018519107E1
1.044835567E1,-6.037095795E0,6.987170105E0,4.258793793E0,1.016879522E1
1.045839467E1,-5.763614502E0,5.681585083E0,4.462220764E0,9.241811258E0
1.046843367E1,-5.865253143E0,4.625680847E0,4.981490936E0,8.978494845E0
1.047847267E1,-5.741161194E0,3.595972137E0,4.823719025E0,8.316261942E0
1.048851267E1,-5.190606079E0,2.309397583E0,4.004023590E0,6.950389455E0
1.049855167E1,-4.055217133E0,9.981243896E-1,2.467468872E0,4.850715506E0
1.050859067E1,-2.745440826E0,3.309617615E-1,1.381776581E0,3.091324560E0
1.051862908E1,-1.868564301E0,8.232879639E-2,8.761280823E-1,2.065408190E0
1.052866808E1,-1.332828369E0,-3.742218018E-2,6.818321228E-1,1.497573679E0
1.053870808E1,-1.032702484E0,-1.787283325E-1,7.979905701E-1,1.317272632E0
1.054874708E1,-6.532415771E-1,-3.023712158E-1,9.434880066E-1,1.186727656E0
1.055878608E1,-2.110610962E-1,-3.905378723E-1,1.022373962E0,1.114591914E0
1.056882508E1,1.309776306E-1,-4.537065125E-1,1.087338867E0,1.185457950E0
1.057886408E1,5.014572144E-1,-5.113366699E-1,1.253493347E0,1.443665508E0
1.058890408E1,8.164022827E-1,-5.926176453E-1,1.502425690E0,1.809693707E0
1.059894308E1,9.439370728E-1,-6.834786987E-1,1.710043945E0,2.069398614E0
1.060898208E1,8.476872253E-1,-8.439450073E-1,1.884730682E0,2.232269373E0
1.061902108E1,6.966513062E-1,-1.093925171E0,1.654808807E0,2.102471762E0
1.062906008E1,8.925938416E-1,-1.128952332E0,1.058149567E0,1.786319579E0
1.063910008E1,1.318009186E0,-1.066382446E0,6.355783081E-1,1.810601978E0
1.064913908E1,1.890269165E0,-1.055754547E0,4.644841003E-1,2.214380423E0
1.065917808E1,2.337988129E0,-1.140927429E0,3.847000122E-1,2.629809496E0
1.066921708E1,2.599943390E0,-1.136436768E0,3.239263916E-1,2.855892586E0
1.067925608E1,2.530637512E0,-1.168170776E0,2.269281006E-1,2.796470194E0
1.068929608E1,2.370620270E0,-1.177002411E0,2.414479065E-1,2.657719366E0
1.069933508E1,2.309397583E0,-1.067579956E0,3.164419556E-1,2.563821302E0
1.070937408E1,2.377955017E0,-9.113049316E-1,4.433779907E-1,2.584904405E0
1.071941308E1,2.699037323E0,-6.589297485E-1,6.846762085E-1,2.861428384E0
1.072945208E1,3.257825317E0,-4.441264343E-1,1.111588440E0,3.470778435E0
1.073949208E1,3.759132843E0,-3.935316467E-1,1.294358368E0,3.995160882E0
1.074953108E1,4.511318665E0,-3.278182983E-1,1.533560944E0,4.776114540E0
1.075957008E1,6.619833984E0,-1.993853760E-1,2.318977661E0,7.017094406E0
1.076960908E1,1.354578140E1,6.571334839E-2,3.809428253E0,1.407139850E1
1.077964908E1,3.799264389E1,6.547384644E-1,7.682174835E0,3.876706698E1
1.078968808E1,7.897876282E1,-2.969524841E0,1.237536530E1,7.999757946E1
1.079972708E1,8.008511215E1,-8.090825043E0,1.442969330E1,8.177592975E1
1.080976608E1,6.864964233E1,-7.967182159E0,6.354136505E0,6.940190512E1
1.081980508E1,5.695087006E1,-3.461252289E0,9.318122864E-1,5.706356229E1
1.082984508E1,4.093761978E1,4.162843323E-1,2.275418243E0,4.100292104E1
1.083988408E1,3.366394547E1,1.416654053E0,1.550924835E0,3.372941596E1
1.084992308E1,2.591590759E1,1.128952332E0,2.414479065E-1,2.594160937E1
1.085996208E1,2.115939880E1,1.366358643E0,-7.707472229E-1,2.121747263E1
1.087000108E1,1.782119064E1,1.251397705E0,-1.785037994E0,1.795402999E1
1.088004108E1,1.482771561E1,8.463400269E-1,-2.251767426E0,1.502158108E1
1.089008008E1,7.837551727E0,-7.571255493E-1,-2.265389099E1,2.398331156E1
1.090011908E1,-8.162226562E0,-7.037764893E0,-6.437423309E1,6.527016136E1
1.091015808E1,-5.728587341E-1,-7.566914520E0,-1.971954300E1,2.112928628E1
1.092019708E1,1.009201355E0,-7.833210754E0,-9.631271667E0,1.245548361E1
1.093023708E1,-1.130898285E0,-7.898924103E0,-7.054080963E0,1.065044558E1
1.094027608E1,-1.379082184E0,-7.439080353E0,-4.351151733E0,8.727789272E0
1.095031508E1,3.861968994E-2,-6.863078156E0,-4.340972900E-1,6.876901461E0
1.096035408E1,2.504292297E0,-5.715115356E0,3.305126953E0,7.061011799E0
1.097039408E1,5.289849701E0,-3.886068878E0,6.233337708E0,9.051990950E0
1.098043308E1,5.673950958E0,-2.345322876E0,5.968238983E0,8.562367396E0
1.099047208E1,4.440964966E0,-1.783391418E0,6.721772003E0,8.251355867E0
1.100051108E1,2.858006744E0,-1.238973541E0,8.739875336E0,9.278398508E0
1.101055008E1,1.091829529E0,-1.600172424E-1,8.614436188E0,8.684826312E0
1.102059008E1,-5.237608337E-1,7.565267944E-1,7.307054901E0,7.364761336E0
1.103062908E1,-1.635349274E0,8.791218567E-1,5.688470764E0,5.983804987E0
1.104066808E1,-1.746867371E0,3.411405945E-1,4.195924530E0,4.557818028E0
1.105070708E1,-4.845423889E-1,-4.477189636E-1,3.400179291E0,3.463589584E0
1.106074608E1,4.791535950E-1,-6.929090881E-1,3.399879913E0,3.502698188E0
1.107078608E1,1.175954590E0,-7.247927856E-1,4.058360596E0,4.287013471E0
1.108082508E1,2.441423035E0,-9.933343506E-1,5.086422729E0,5.728783095E0
1.109086408E1,5.977070618E0,-1.610351257E0,6.174360352E0,8.743073264E0
1.110090308E1,1.260543686E1,-2.704426117E0,6.351292419E0,1.437184311E1
1.111094208E1,2.161235687E1,-4.229305115E0,5.238207092E0,2.263669156E1
1.112098208E1,2.981694534E1,-5.907615051E0,3.178490295E0,3.056227979E1
1.113102108E1,3.019805283E1,-7.619155884E0,1.377435608E0,3.117484979E1
1.114106008E1,2.204705292E1,-9.203910370E0,-6.656657410E-1,2.390036860E1
1.115109908E1,1.460662537E1,-9.290280762E0,-3.388503571E0,1.763929641E1
1.116113808E1,1.034468811E1,-7.449558563E0,-5.164709930E0,1.375437107E1
1.117117808E1,9.104816437E0,-4.803061981E0,-5.269791412E0,1.156450554E1
1.118121708E1,9.211245117E0,-2.295326843E0,-5.051994324E0,1.075352075E1
1.119125608E1,8.934620361E0,1.645079041E-1,-5.024601288E0,1.025188382E1
1.120129508E1,7.400460663E0,1.391057281E0,-4.874912567E0,8.970319444E0
1.121133408E1,5.998775482E0,2.496658173E0,-4.435576172E0,7.867206956E0
1.122137408E1,4.669689331E0,3.083587646E0,-3.730691986E0,6.725516628E0
1.123141308E1,3.386707306E0,3.002156982E0,-2.766097870E0,5.304152180E0
1.124145208E1,2.553689575E0,3.081941071E0,-1.567839661E0,4.298582605E0
1.125149108E1,1.999242554E0,3.550915833E0,-6.635700989E-1,4.128716425E0
1.126153008E1,1.408421173E0,3.223546600E0,-1.607656860E-1,3.521469649E0
1.127157008E1,6.698570251E-1,2.415526886E0,-2.709365845E-1,2.521286418E0
1.128160908E1,-7.214996338E-1,1.551074524E0,8.063731384E-1,1.891198440E0
1.129164808E1,-3.841761017E0,3.716770935E-1,3.733236694E0,5.369760496E0
1.130168708E1,-9.107660522E0,-3.796105957E-1,8.757987671E0,1.264104159E1
1.131172608E1,-1.318892349E1,-5.593867493E-1,1.261202316E1,1.825715599E1
1.132176608E1,-1.355850494E1,-6.905140686E-1,1.300435730E1,1.879955252E1
1.133180508E1,-8.897048492E0,-9.425898743E-1,1.032238449E1,1.366007208E1
1.134184408E1,-3.456761627E0,-1.377884674E0,6.648723907E0,7.619271403E0
1.135188308E1,-2.767744446E-1,-1.301244049E0,5.370980988E0,5.533288076E0
1.136192308E1,3.078797607E0,-8.988807678E-1,7.541916504E0,8.195577215E0
1.137196208E1,1.210442871E1,-1.100361786E0,1.100915634E1,1.639907052E1
1.138200108E1,5.139816696E1,-5.927673340E-1,1.318982162E1,5.306688548E1
1.139204008E1,1.030511041E2,2.482437744E0,1.672876236E1,1.044296129E2
1.140207908E1,9.927221237E1,3.904031525E0,9.715247040E0,9.982284126E1
1.141211908E1,8.815842361E1,4.088897095E0,2.187101898E0,8.828029309E1
1.142215808E1,6.499259720E1,2.659220123E0,-7.616162109E-1,6.505143505E1
1.143219708E1,4.559398682E1,1.240919495E0,-2.951113129E0,4.570624228E1
1.144223608E1,3.249083496E1,-1.310674438E0,-5.092874313E1,6.042440816E1
1.145227508E1,1.880629211E1,-1.290256897E1,-7.488372849E1,7.827979114E1
1.146231508E1,1.867890701E1,-1.386970779E1,-5.900280304E0,2.400174304E1
1.147235408E1,1.328487396E1,-1.132769394E1,1.053658905E0,1.749041804E1
1.148239308E1,5.393284607E0,-9.223818970E0,3.186723175E0,1.114995784E1
1.149243208E1,3.772155762E-2,-7.295977936E0,3.173251190E0,7.956270488E0
1.150247208E1,-2.076182556E0,-5.722300415E0,2.825673981E0,6.711161561E0
1.151251108E1,-4.833448792E0,-3.780388641E0,2.813399506E0,6.750465338E0
1.152255042E1,-7.628885651E0,1.258283386E0,4.198768616E0,8.798456185E0
1.153258942E1,-5.892945557E0,1.121617584E1,4.418661346E0,1.341841928E1
1.154262842E1,-8.354576569E0,1.978420853E1,4.345912628E0,2.191120292E1
1.155266842E1,-1.181103882E1,2.419643326E1,7.745493164E0,2.801714983E1
1.156270742E1,-1.385443954E1,2.255689270E1,9.477241974E0,2.811720148E1
1.157274642E1,-1.434526886E1,1.537318130E1,7.637717285E0,2.237087766E1
1.158278542E1,-1.379980316E1,7.998018036E0,4.114344177E0,1.647211850E1
1.159282442E1,-1.097023727E1,2.836900635E0,1.864223328E0,1.148344198E1
1.160286442E1,-7.059020691E0,4.330494690E-1,1.083596649E0,7.154822615E0
1.161290342E1,-4.043840790E0,-3.704795837E-1,1.409618683E0,4.298479765E0
1.162294242E1,-2.134261780E0,-5.075944519E-1,1.743723907E0,2.802373733E0
1.163298142E1,-9.572593689E-1,-3.480262756E-1,1.643282776E0,1.933350995E0
1.164302042E1,-3.668870544E-1,-4.125421143E-1,1.650467834E0,1.740356624E0
1.165306042E1,-1.314266968E-1,-6.578819275E-1,1.743274841E0,1.867910271E0
1.166309942E1,3.891906738E-2,-9.131011963E-1,1.938917999E0,2.143518485E0
1.167313842E1,1.440005493E-1,-1.083297272E0,2.118843842E0,2.384065511E0
1.168317742E1,4.082011414E-1,-1.353335724E0,2.499651947E0,2.871655552E0
1.169321642E1,1.110540619E0,-1.605860596E0,2.719245300E0,3.347593721E0
1.170325642E1,1.755699005E0,-1.992506561E0,2.443967743E0,3.609091260E0
1.171329542E1,2.433489532E0,-2.462080078E0,2.086660767E0,4.042012218E0
1.172333442E1,3.317700806E0,-2.734812927E0,1.861977997E0,4.685435139E0
1.173337342E1,4.289330292E0,-2.953957214E0,1.516047363E0,5.424261902E0
1.174341342E1,5.258864136E0,-3.184028778E0,1.310524750E0,6.285790832E0
1.175345242E1,6.062093811E0,-3.311264191E0,1.241368561E0,7.018151311E0
1.176349142E1,6.550528107E0,-3.411855011E0,1.078357544E0,7.464116028E0
1.177353042E1,6.319708099E0,-3.371289368E0,7.679031372E-1,7.203747475E0
1.178356942E1,5.342839508E0,-3.273842010E0,2.347119141E-1,6.270491624E0
1.179360942E1,4.198169861E0,-2.910547485E0,-3.984713745E-1,5.123933673E0
1.180364842E1,3.196452942E0,-2.390079803E0,-9.409432983E-1,4.100630094E0
1.181368742E1,2.370769958E0,-1.830243988E0,-1.278790741E0,3.256631544E0
1.182372642E1,1.816622314E0,-1.301393738E0,-1.350491638E0,2.611047675E0
1.183376542E1,1.405427399E0,-7.731422424E-1,-9.431886292E-1,1.860800873E0
1.184380542E1,1.317859497E0,1.049317932E-1,-3.968247986E-1,1.380302234E0
1.185384442E1,1.104104004E0,1.076112213E0,1.214424591E0,1.962623304E0
1.186388342E1,8.696914673E-1,2.021246796E0,3.238365784E0,3.915203035E0
1.187392242E1,4.644841003E-1,2.358196106E0,4.905149689E0,5.462355520E0
1.188396142E1,1.110690308E-1,2.133064270E0,5.751789093E0,6.135582880E0
1.189400142E1,1.144819336E0,1.528022461E0,5.095104675E0,5.441098750E0
1.190404042E1,3.420387268E0,1.107247467E0,3.956871643E0,5.346202317E0
1.191407942E1,5.950575714E0,7.789801025E-1,4.196523285E0,7.323043699E0
1.192411842E1,1.087249054E1,2.912942505E-1,7.808212738E0,1.338895399E1
1.193415842E1,2.828428253E1,-5.658233643E-1,1.715193237E1,3.308337314E1
1.194419742E1,6.617289276E1,-2.560425568E0,3.162608322E1,7.338676076E1
1.195423642E1,8.918708450E1,-1.406774597E0,3.355422363E1,9.530058227E1
1.196427542E1,7.404113068E1,2.810705109E0,1.890763138E1,7.646886699E1
1.197431442E1,6.318735123E1,4.725373535E0,1.166449356E1,6.442849463E1
1.198435442E1,4.680646545E1,3.393443298E0,8.035589905E0,4.761230273E1
1.199439342E1,2.790347443E1,2.292782135E0,4.639601898E0,2.837933475E1
1.200443242E1,2.157867691E1,2.279010773E0,1.298849030E0,2.173752967E1
1.201447142E1,2.171115143E1,2.734363861E0,-8.253836060E-1,2.189822139E1
1.202451142E1,1.894415543E1,1.036744080E0,-6.742923019E1,7.004753349E1
1.203455042E1,1.395098877E1,-9.686506805E0,-8.214482895E1,8.388224738E1
1.204458942E1,1.105945175E1,-1.410292282E1,-1.427521454E1,2.291256544E1
1.205462842E1,7.400760040E0,-1.314805847E1,-7.926766205E0,1.704336567E1
1.206466742E1,2.322270813E0,-1.168380341E1,-4.051774292E0,1.258257043E1
1.207470742E1,2.276316376E0,-9.260193329E0,1.384321289E0,9.635825972E0
1.208474642E1,6.059249725E0,-5.936504974E0,6.487060089E0,1.067888323E1
1.209478542E1,9.332492981E0,-1.314266968E0,1.147798141E1,1.485149084E1
1.210482442E1,9.600136414E0,3.702550507E0,1.310255310E1,1.665978383E1
1.211486342E1,6.810238037E0,7.435637512E0,4.891677704E0,1.120698702E1
1.212490342E1,3.321293335E0,8.308472443E0,3.186124420E0,9.498057305E0
1.213494242E1,-1.358874207E0,7.436385956E0,2.833008728E0,8.072937114E0
1.214498142E1,-4.461771698E0,6.109545135E0,8.631051636E-1,7.614387629E0
1.215502042E1,-4.846771088E0,4.394112396E0,3.445834351E-1,6.551194660E0
1.216505942E1,-3.788172455E0,2.532733154E0,9.952803040E-1,4.664286726E0
1.217509942E1,-2.398013306E0,8.925938416E-1,1.700314178E0,3.072175107E0
1.218513842E1,-1.516346741E0,-3.597019958E-1,1.643582153E0,2.264962529E0
1.219517742E1,-1.094523926E0,-8.789721680E-1,1.421144714E0,1.997555255E0
1.220521642E1,-6.020480347E-1,-9.476792908E-1,1.166823578E0,1.619269939E0
1.221525642E1,-1.261875916E-1,-9.002279663E-1,1.019529877E0,1.365933699E0
1.222529542E1,2.956352234E-1,-7.497908020E-1,1.111738129E0,1.373152613E0
1.223533442E1,9.072633362E-1,-5.418731689E-1,1.781445465E0,2.071304236E0
1.224537342E1,2.068698120E0,-2.308200073E-1,2.948119354E0,3.608905307E0
1.225541242E1,3.889212341E0,9.445358276E-2,4.423152008E0,5.890599953E0
1.226545242E1,6.100114746E0,1.585203552E-1,5.881868591E0,8.475429591E0
1.227549142E1,1.006447083E1,1.070274353E-1,7.471263428E0,1.253494336E1
1.228553042E1,1.621308472E1,-1.820214844E-1,8.785231018E0,1.844119117E1
1.229556942E1,2.306358902E1,-7.565267944E-1,9.344468079E0,2.489619559E1
1.230560842E1,2.455972778E1,-2.251468048E0,7.481591949E0,2.577253490E1
1.231564842E1,1.961476089E1,-4.248914337E0,3.864962769E0,2.043844552E1
1.232568742E1,1.539937683E1,-4.307442627E0,6.113287354E-1,1.600214334E1
1.233572642E1,1.246787292E1,-2.679428101E0,-1.577419739E0,1.284972542E1
1.234576542E1,1.012898666E1,-1.084494781E0,-2.428849182E0,1.047243086E1
1.235580542E1,8.665929108E0,8.704399109E-1,-3.278482361E0,9.306150629E0
1.236584442E1,7.895930328E0,3.075205078E0,-3.963907013E0,9.354953812E0
1.237588342E1,6.786587219E0,4.801565094E0,-4.027075653E0,9.237431015E0
1.238592242E1,5.217250671E0,5.563031616E0,-3.394191742E0,8.347907697E0
1.239596142E1,3.742966461E0,5.223687286E0,-2.399959259E0,6.859774868E0
1.240600142E1,2.953957214E0,4.428989868E0,-6.399192810E-1,5.362024913E0
1.241604042E1,2.265089722E0,2.716251526E0,2.216141510E0,4.173719803E0
1.242607942E1,1.339863739E0,7.280859375E-1,6.389762421E0,6.569201456E0
1.243611842E1,1.131497040E0,-1.282532959E0,9.091194763E0,9.250675573E0
1.244615742E1,2.394121399E0,-2.925067291E0,9.147627411E0,9.897824164E0
1.245619742E1,5.208119659E0,-3.544030151E0,8.749754791E0,1.078159863E1
1.246623642E1,1.074061478E1,-3.319946136E0,8.185278625E0,1.390617253E1
1.247627542E1,2.029090485E1,-2.045795746E0,8.300389252E0,2.201823248E1
1.248631442E1,3.562232300E1,3.739224243E-1,9.704170074E0,3.692235949E1
1.249635442E1,5.347719360E1,3.116219788E0,1.285137543E1,5.508791984E1
1.250639342E1,6.644008713E1,9.633067932E0,1.513382904E1,6.881943008E1
1.251643242E1,7.224756042E1,1.639271118E1,1.486259308E1,7.556009291E1
1.252647129E1,6.215434937E1,1.422536819E1,1.079450272E1,6.466873691E1
1.253651029E1,4.083972336E1,8.090226288E0,6.198160858E0,4.209218411E1
1.254655029E1,2.914738770E1,4.464765472E0,3.804937592E0,2.973183294E1
1.255658929E1,2.157732971E1,2.586770782E0,2.498454437E0,2.187498149E1
1.256662829E1,1.638971741E1,1.829495544E0,1.196761322E0,1.653487612E1
1.257666729E1,1.248867966E1,1.064137115E0,-2.446512451E1,2.748894004E1
1.258670729E1,1.060694275E1,-7.929011536E-1,-3.915677307E1,4.057571693E1
1.259674629E1,1.120000946E1,-1.007704468E0,-1.376836853E1,1.777705409E1
1.260678529E1,5.207071838E0,-1.223555603E0,-6.239624634E0,8.218491407E0
1.261682429E1,-8.803193665E-1,-1.084345093E0,-1.300794983E0,1.908620982E0
1.262686329E1,-9.934840393E-1,-7.729925537E-1,-4.730163574E-2,1.259668793E0
1.263690329E1,5.281018066E-1,-3.594026184E-1,1.479074249E0,1.611124575E0
1.264694229E1,1.803749084E0,-1.495390320E-1,2.378104706E0,2.988520482E0
1.265698129E1,1.392404480E0,-1.609153748E-1,2.614612885E0,2.966628479E0
1.266702029E1,1.056802368E-1,-2.716850281E-1,2.398312683E0,2.415964568E0
1.267706029E1,-6.565347290E-1,-2.902464294E-1,2.325114899E0,2.433400939E0
1.268709929E1,-1.352886658E0,-3.234773254E-1,2.066602478E0,2.491141443E0
1.269713829E1,-2.167642365E0,-6.694079590E-1,1.811083832E0,2.902895982E0
1.270717729E1,-4.167184296E0,-5.686674500E-1,3.158881073E0,5.259975024E0
1.271721629E1,-7.453899536E0,5.721102905E-1,4.332889709E0,8.640709561E0
1.272725629E1,-7.497758331E0,1.522783356E0,4.001179504E0,8.633926486E0
1.273729529E1,-6.640640717E0,8.770262146E-1,4.024680634E0,7.814431413E0
1.274733429E1,-5.299280090E0,4.596940613E-1,4.057761841E0,6.690225651E0
1.275737329E1,-4.467459869E0,4.064048767E-1,3.145558777E0,5.478859610E0
1.276741229E1,-4.150718536E0,7.185058594E-2,2.011367340E0,4.612941085E0
1.277745229E1,-3.643872528E0,-4.113446045E-1,1.276395721E0,3.882807930E0
1.278749129E1,-3.093018036E0,-7.708969116E-1,6.343807983E-1,3.250151014E0
1.279753029E1,-2.604583740E0,-8.830137634E-1,-1.176553345E-1,2.752710036E0
1.280756929E1,-2.286794586E0,-8.054750061E-1,-7.607180786E-1,2.541045348E0
1.281760929E1,-2.002386017E0,-6.891668701E-1,-1.145268402E0,2.407517487E0
1.282764829E1,-1.649719391E0,-4.899311829E-1,-1.450034637E0,2.250379320E0
1.283768729E1,-1.282383270E0,-3.603007507E-1,-1.741179199E0,2.192265606E0
1.284772629E1,-1.296004944E0,-3.525169373E-1,-1.906585236E0,2.332158714E0
1.285776529E1,-1.302291870E0,-2.841091919E-1,-1.843266907E0,2.274712078E0
1.286780529E1,-1.150657196E0,-1.369651794E-1,-1.791923676E0,2.133954522E0
1.287784429E1,-1.035546570E0,-7.514373779E-2,-1.618434448E0,1.922845117E0
1.288788329E1,-1.055155792E0,-4.266128540E-2,-1.513652344E0,1.845621074E0
1.289792229E1,-1.189276886E0,1.381626892E-1,-1.301842804E0,1.768689664E0
1.290796129E1,-1.421294403E0,4.309538269E-1,-9.171427917E-1,1.745551455E0
1.291800129E1,-1.704655151E0,7.996371460E-1,-5.001100159E-1,1.948173190E0
1.292804029E1,-1.583706665E0,1.115330658E0,-2.234852600E-1,1.949880750E0
1.293807929E1,-1.253792725E0,1.348695374E0,-8.277786255E-2,1.843319718E0
1.294811829E1,-9.231303406E-1,1.535955963E0,1.094224548E-1,1.795356126E0
1.295815829E1,-6.709048462E-1,1.618883514E0,4.926255798E-1,1.820323353E0
1.296819729E1,-4.812492371E-1,1.532064056E0,9.726773071E-1,1.877477628E0
1.297823629E1,-4.267625427E-1,1.370849304E0,1.399739227E0,2.005149368E0
1.298827529E1,-3.001258850E-1,1.376986542E0,1.704954529E0,2.212021118E0
1.299831429E1,1.435514832E-1,1.442849579E0,1.643881531E0,2.191978199E0
1.300835429E1,6.888674927E-1,1.470541992E0,1.719174957E0,2.364866742E0
1.301839329E1,1.310674438E0,1.541494446E0,2.241289215E0,3.019511543E0
1.302843229E1,2.370769958E0,1.625320129E0,3.104544067E0,4.230887565E0
1.303847129E1,5.135071564E0,1.958527222E0,4.074526978E0,6.841531914E0
1.304851129E1,1.393976212E1,3.413501587E0,6.050867157E0,1.557504267E1
1.305855029E1,2.976769775E1,6.091283112E0,8.456813965E0,3.153945564E1
1.306858929E1,7.211269089E1,8.390202484E0,7.647746429E0,7.300084733E1
1.307862829E1,1.168937183E2,5.164260864E-1,5.164709930E0,1.170088984E2
1.308866729E1,6.591917038E1,2.246079254E0,7.326514435E0,6.636308996E1
1.309870729E1,3.900334213E1,5.920787659E0,2.659369812E0,3.953971006E1
1.310874629E1,5.261109467E1,1.940714264E0,8.891809387E0,5.339248943E1
1.311878529E1,4.335943359E1,-6.713539124E-1,7.958350525E0,4.408884826E1
1.312882429E1,2.885265060E1,-2.011367340E0,5.294490051E0,2.940327652E1
1.313886429E1,1.909803543E1,-2.789149933E0,3.825744324E0,1.967614379E1
1.314890329E1,1.207164688E1,-2.711012421E0,2.088756409E0,1.254739615E1
1.315894229E1,6.532116394E0,-2.978206787E0,-2.428250427E0,7.578565853E0
1.316898129E1,-2.912942505E0,-8.364905090E0,-4.841457138E1,4.921816324E1
1.317902029E1,2.089654541E-1,-1.156480087E1,-3.432467148E1,3.622114518E1
1.318906029E1,2.727029114E0,-7.977660370E0,-7.547005920E0,1.131534582E1
1.319909929E1,-6.959028625E-1,-3.670966187E0,-2.372865601E0,4.426145580E0
1.320913829E1,-1.351988525E0,-6.872209167E-1,-2.368824005E0,2.812734031E0
1.321917729E1,-1.065184937E0,7.083270264E-1,-9.189390564E-1,1.575054004E0
1.322921729E1,-7.417076111E-1,9.692344666E-1,6.491999817E-1,1.382391496E0
1.323925629E1,4.655319214E-2,4.884342957E-1,1.839225311E0,1.903545378E0
1.324929529E1,9.539662170E-1,-1.149609375E-1,2.344125366E0,2.533414947E0
1.325933429E1,1.476679230E0,-5.769003296E-1,2.378254395E0,2.858231884E0
1.326937329E1,1.045426025E0,-7.107220459E-1,2.149380341E0,2.493567174E0
1.327941329E1,9.434880066E-1,-8.985813904E-1,2.005679169E0,2.391728885E0
1.328945229E1,8.416996765E-1,-9.235794067E-1,1.963466949E0,2.327371850E0
1.329949129E1,9.288185120E-1,-8.099656677E-1,1.998943176E0,2.348301947E0
1.330953029E1,1.347647552E0,-6.394702148E-1,2.190095673E0,2.649829266E0
1.331957029E1,1.772015076E0,-5.736071777E-1,2.444267120E0,3.073028535E0
1.332960929E1,2.478246460E0,-5.248086548E-1,2.630180511E0,3.651709074E0
1.333964829E1,3.455115051E0,-4.945715332E-1,2.874622192E0,4.521711376E0
1.334968729E1,4.697232056E0,-5.721102905E-1,3.139870605E0,5.678915969E0
1.335972629E1,7.280410309E0,-7.505392456E-1,3.473077698E0,8.101231519E0
1.336976629E1,1.361688354E1,-9.889933777E-1,4.253704376E0,1.430005686E1
1.337980529E1,2.370650208E1,-1.528022461E0,4.356989594E0,2.415194509E1
1.338984429E1,3.274470703E1,-1.914818115E0,1.325792999E0,3.282742899E1
1.339988329E1,3.867058411E1,-7.481442261E-1,-2.360291748E0,3.874977125E1
1.340992229E1,3.306129868E1,4.816983032E-1,-2.280208282E0,3.314333799E1
1.341996229E1,2.025408142E1,5.839356995E-1,-1.488654327E0,2.031710823E1
1.343000129E1,1.339489517E1,8.774752808E-1,-1.064735870E0,1.346576556E1
1.344004029E1,9.345815277E0,1.076561279E0,-6.400689697E-1,9.429365603E0
1.345007929E1,6.606811066E0,1.100361786E0,-3.388952637E-1,6.706384907E0
1.346011929E1,4.684059448E0,9.656419373E-1,-1.401086426E-1,4.784611551E0
1.347015829E1,3.265160065E0,7.954458618E-1,-1.437011719E-2,3.360686071E0
1.348019729E1,2.155068512E0,6.548881531E-1,3.203338623E-2,2.252604031E0
1.349023629E1,1.343905334E0,5.791456604E-1,9.190887451E-2,1.466266853E0
1.350027629E1,4.119433594E-1,5.023553467E-1,-2.570155334E-1,6.986524244E-1
1.351031529E1,-3.165167999E0,4.089495850E-1,-3.798201599E0,4.961034531E0
1.352035467E1,-6.668333130E0,3.844006348E-1,-6.430178375E0,9.271549197E0
1.353039367E1,-5.782175903E0,5.474116516E-1,-4.816084900E0,7.545057419E0
1.354043267E1,-3.621119843E0,8.545729065E-1,-2.654430084E0,4.570426986E0
1.355047267E1,-1.215921478E0,1.010099487E0,-7.153623962E-1,1.735081950E0
1.356051167E1,6.144721985E-1,1.017434235E0,6.975494385E-1,1.378159542E0
1.357055067E1,1.678160248E0,9.017248535E-1,1.918710022E0,2.703844980E0
1.358058967E1,2.030677185E0,7.532336426E-1,3.229833527E0,3.888808990E0
1.359062867E1,2.288740540E0,5.029541016E-1,3.981570282E0,4.619978138E0
1.360066867E1,2.605631561E0,1.930984497E-1,4.255350952E0,4.993457176E0
1.361070767E1,3.086581421E0,-4.999603271E-2,4.388124847E0,5.365176991E0
1.362074667E1,3.946842499E0,-2.046244812E-1,5.079986115E0,6.436279656E0
1.363078567E1,5.761818237E0,-2.035766602E-1,6.233637085E0,8.491067316E0
1.364082567E1,1.036998550E1,-8.966354370E-2,8.613987122E0,1.348129864E1
1.365086467E1,2.420526489E1,3.032693481E-1,1.313069458E1,2.753909877E1
1.366090367E1,5.353856598E1,6.762936401E-1,1.791609329E1,5.646079896E1
1.367094267E1,6.671102371E1,2.171683960E0,1.500300110E1,6.841174561E1
1.368098267E1,4.868251419E1,6.248456268E0,6.374045105E0,4.949402837E1
1.369102167E1,6.001095657E1,7.205715637E0,6.248306580E0,6.076412249E1
1.370106067E1,7.697682587E1,6.990612946E0,7.286547546E0,7.763629412E1
1.371109967E1,6.257123245E1,4.034260712E0,3.868704987E0,6.282038895E1
1.372113867E1,3.851745255E1,1.730401611E-1,1.978735199E0,3.856863345E1
1.373117867E1,2.580917953E1,-1.405128021E0,1.141526184E0,2.587259583E1
1.374121767E1,1.868354736E1,-1.911375275E0,9.580078125E-1,1.880547996E1
1.375125667E1,1.387404877E1,-2.171085205E0,1.124761047E0,1.408786455E1
1.376129567E1,1.026640091E1,-2.220632172E0,1.234931946E0,1.057616432E1
1.377133567E1,7.267088013E0,-2.179617462E0,1.243015137E0,7.688067839E0
1.378137467E1,4.631219330E0,-2.131118317E0,1.329984283E0,5.268654093E0
1.379141367E1,2.433938599E0,-2.001338196E0,1.361568604E0,3.432678362E0
1.380145267E1,9.337582397E-1,-1.674118652E0,1.456171875E0,2.407283582E0
1.381149167E1,1.064286804E-1,-1.336570587E0,1.828148346E0,2.267129104E0
1.382153167E1,-3.926335144E-1,-1.051712952E0,2.457439728E0,2.701716348E0
1.383157067E1,-1.033301239E0,-8.369096375E-1,3.516188049E0,3.759216353E0
1.384160967E1,-1.631607056E0,-6.213578796E-1,4.226161652E0,4.572599863E0
1.385164867E1,-2.144889679E0,-5.748046875E-1,4.418212280E0,4.944851051E0
1.386168867E1,-3.119962006E0,-8.108638000E-1,5.417983246E0,6.304459174E0
1.387172767E1,-5.275629272E0,-1.197360077E0,6.825655975E0,8.709507154E0
1.388176667E1,-7.015610962E0,-1.790127411E0,8.218359833E0,1.095284400E1
1.389180567E1,-8.744515686E0,-2.583477631E0,9.392967224E0,1.309078854E1
1.390184467E1,-9.695188751E0,-3.234773254E0,9.356293488E0,1.385643066E1
1.391188467E1,-8.938512268E0,-2.987936554E0,7.904312897E0,1.230052555E1
1.392192367E1,-7.846832428E0,-2.166444855E0,6.827601929E0,1.062461343E1
1.393196267E1,-6.659351807E0,-1.845362549E0,5.003495178E0,8.531546953E0
1.394200167E1,-5.348976746E0,-1.372944946E0,2.510429535E0,6.066200335E0
1.395204067E1,-4.852159882E0,-4.872367859E-1,2.989283752E-1,4.885715237E0
1.396208067E1,-4.896168365E0,2.574645996E-2,-9.439370728E-1,4.986395967E0
1.397211967E1,-5.037025452E0,4.093986511E-1,-1.753603363E0,5.349238956E0
1.398215867E1,-5.222489777E0,9.033714294E-1,-2.410287781E0,5.822367782E0
1.399219767E1,-4.865781555E0,1.506167908E0,-2.697690125E0,5.763844543E0
1.400223767E1,-4.119583282E0,1.770518188E0,-2.391277313E0,5.081722962E0
1.401227667E1,-3.282973022E0,1.760489044E0,-1.763033752E0,4.121349482E0
1.402231567E1,-2.622995453E0,1.709145813E0,-1.126407623E0,3.327172777E0
1.403235467E1,-2.030976563E0,1.684746552E0,-5.523513794E-1,2.695983825E0
1.404239367E1,-1.440604248E0,1.662742310E0,-1.504371643E-1,2.205149412E0
1.405243367E1,-8.961863708E-1,1.740580444E0,-1.871109009E-2,1.957835642E0
1.406247267E1,2.326162720E-1,2.105072479E0,-3.146307220E0,3.792715333E0
1.407251167E1,1.517993317E0,2.437980194E0,-5.256020050E0,5.989473925E0
1.408255067E1,1.892065430E0,2.416125641E0,-4.116439819E0,5.134457273E0
1.409259067E1,2.087858276E0,2.430346069E0,-3.085234222E0,4.447966322E0
1.410262967E1,2.139351196E0,2.334395599E0,-2.021396484E0,3.756630152E0
1.411266867E1,1.960772552E0,2.049088898E0,-7.676037598E-1,2.938130332E0
1.412270767E1,1.571132813E0,1.542841644E0,5.530998230E-1,2.270404825E0
1.413274667E1,1.015338593E0,9.665400696E-1,1.394350433E0,1.977201379E0
1.414278667E1,6.969506836E-1,4.403842163E-1,1.562301178E0,1.766483366E0
1.415282567E1,6.253994751E-1,2.365081787E-2,1.711391144E0,1.822235855E0
1.416286467E1,5.245092773E-1,-2.586621094E-1,1.908082123E0,1.995693728E0
1.417290367E1,4.873864746E-1,-2.827619934E-1,1.527872772E0,1.628464040E0
1.418294367E1,2.784210205E-1,-2.697390747E-1,1.031654663E0,1.102083834E0
1.419298267E1,6.511459351E-2,-3.447331238E-1,1.109492798E0,1.163638735E0
1.420302167E1,3.540138245E-1,-2.085163879E-1,2.525398407E0,2.558601568E0
1.421306067E1,1.314716034E0,-9.834548950E-2,5.586832123E0,5.740282506E0
1.422309967E1,4.674479370E0,-2.995271301E-1,9.994715881E0,1.103788111E1
1.423313967E1,1.937016953E1,-2.847229156E0,2.014420990E1,2.809091266E1
1.424317867E1,6.422424500E1,-7.921976166E0,3.802692261E1,7.505703295E1
1.425321767E1,1.265676512E2,-1.302217026E1,4.811309830E1,1.360287377E2
1.426325667E1,1.118779486E2,-9.809251556E0,2.974150223E1,1.161785426E2
1.427329667E1,5.368047089E1,5.128335571E-1,9.067843323E0,5.444338101E1
1.428333567E1,2.643308212E1,4.303550720E0,6.046825562E0,2.745528144E1
1.429337467E1,2.277289352E1,3.257975006E0,2.285746765E0,2.311803882E1
1.430341367E1,2.393118484E1,2.576142883E0,7.631130981E-1,2.408153778E1
1.431345367E1,2.479593658E1,1.986668701E0,-9.624984741E-2,2.487558216E1
1.432349267E1,1.581551147E1,-5.412744141E0,-6.947053528E1,7.145336573E1
1.433353167E1,1.527333893E1,-1.800815186E1,-6.176036865E1,6.612043218E1
1.434357067E1,1.979229172E1,-1.732272720E1,-1.255035141E1,2.914314687E1
1.435360967E1,9.801617432E0,-1.497485962E1,-1.009006760E1,2.054574382E1
1.436364967E1,-1.609902191E0,-8.119864655E0,1.948049011E0,8.504050918E0
1.437368867E1,-5.924080811E0,-1.106798401E0,1.001716919E0,6.109269427E0
1.438372767E1,-3.773353271E0,2.791245575E0,4.902305603E-1,4.719064820E0
1.439376667E1,-1.948647766E0,4.088897095E0,5.992039490E-1,4.568955345E0
1.440380667E1,8.262817383E-2,3.076252899E0,2.805016937E0,4.163925952E0
1.441384567E1,1.265019379E0,2.226170654E0,5.264552307E0,5.854196854E0
1.442388467E1,1.251248016E0,1.057101746E0,6.348148956E0,6.556072061E0
1.443392367E1,8.987310791E-1,6.869215393E-1,6.343807983E0,6.443871389E0
1.444396267E1,-4.691244507E-1,5.469625854E-1,4.873116302E0,4.926104781E0
1.445400267E1,-1.504521332E0,9.340576172E-2,2.927312622E0,3.292638495E0
1.446404167E1,-1.592987366E0,-3.088078308E-1,2.135908356E0,2.682363795E0
1.447408067E1,-1.554217987E0,-7.976911926E-1,2.023941193E0,2.673619782E0
1.448411967E1,-1.430575104E0,-1.109941864E0,2.178869019E0,2.833017167E0
1.449415967E1,-1.047970734E0,-1.232686615E0,2.514620819E0,2.990163342E0
1.450419867E1,-2.290237427E-1,-1.014889526E0,2.728975067E0,2.920574865E0
1.451423767E1,7.075785828E-1,-7.102729797E-1,3.622317352E0,3.758502116E0
1.452427654E1,1.635199585E0,-4.460723877E-1,5.132377167E0,5.405011900E0
1.453431554E1,3.189118195E0,2.067201233E-1,6.798712006E0,7.512369334E0
1.454435554E1,6.047274628E0,1.348246307E0,8.332272949E0,1.038335548E1
1.455439454E1,1.011282028E1,2.376458130E0,1.038794815E1,1.469102291E1
1.456443354E1,1.625065659E1,2.630629578E0,1.217657867E1,2.047615979E1
1.457447254E1,2.648741913E1,2.231409760E0,1.252565277E1,2.938459697E1
1.458451254E1,3.798486008E1,1.070723419E0,1.183528839E1,3.980037808E1
1.459455154E1,4.191373993E1,-3.430865479E-1,9.597891083E0,4.299998624E1
1.460459054E1,3.319048004E1,-2.927013245E0,1.244512024E0,3.334252813E1
1.461462954E1,2.212144821E1,-4.093836823E0,-5.286406860E0,2.310982623E1
1.462466854E1,1.557990143E1,-3.156036987E0,-4.098177795E0,1.641611888E1
1.463470854E1,1.169772446E1,-3.398981781E0,-4.117936707E0,1.285874167E1
1.464474754E1,9.881551208E0,-3.230731659E0,-4.091441803E0,1.117240249E1
1.465478654E1,8.415350189E0,-3.029699707E0,-4.128564606E0,9.851002224E0
1.466482554E1,7.990982666E0,-2.823877716E0,-3.222049713E0,9.067066432E0
1.467486554E1,7.412136383E0,-2.422262878E0,-1.719923401E0,7.985315255E0
1.468490454E1,5.966442719E0,-2.014361115E0,-1.152154083E0,6.401839458E0
1.469494354E1,3.915407867E0,-1.739233246E0,-9.583071899E-1,4.390182652E0
1.470498254E1,1.359023895E0,-1.448837128E0,-1.368903351E0,2.412461679E0
1.471502154E1,-4.099974060E0,-9.334588623E-1,-3.152893524E0,5.255651274E0
1.472506154E1,-7.135661316E0,-2.793191528E-1,-4.053121490E0,8.211179904E0
1.473510054E1,-6.937922516E0,5.807922363E-2,-3.940405884E0,7.979031305E0
1.474513954E1,-4.374802551E0,1.642085266E-1,-3.063229980E0,5.343148858E0
1.475517854E1,-1.213077393E0,4.730163574E-2,-1.779798889E0,2.154409035E0
1.476521854E1,9.892927551E-1,-7.619155884E-2,-8.976832581E-1,1.338036076E0
1.477525754E1,2.250120850E0,-3.118016052E-1,-2.541714478E-1,2.285796842E0
1.478529654E1,2.784509583E0,-6.129753113E-1,2.354603577E-1,2.860886913E0
1.479533554E1,2.751428375E0,-8.128097534E-1,7.212002563E-1,2.958233867E0
1.480537454E1,2.159858551E0,-8.012837219E-1,1.297202454E0,2.643818974E0
1.481541454E1,1.298998718E0,-8.096662903E-1,2.060315552E0,2.566682167E0
1.482545354E1,8.919950867E-1,-7.400610352E-1,2.607577515E0,2.853560244E0
1.483549254E1,1.505569153E0,-5.872288513E-1,3.067870331E0,3.467478127E0
1.484553154E1,2.461930389E0,-6.203100586E-1,4.707560577E0,5.348552365E0
1.485557154E1,4.776866455E0,-6.963519287E-1,6.817872162E0,8.353845818E0
1.486561054E1,1.142903320E1,-8.816665649E-1,9.003477173E0,1.457610157E1
1.487564954E1,2.813324661E1,-1.854493561E0,1.389081390E1,3.143045374E1
1.488568854E1,6.534870667E1,-2.236948242E0,2.417607559E1,6.971327012E1
1.489572854E1,9.460895966E1,1.019978943E0,2.224194763E1,9.719362036E1
1.490576754E1,9.008327087E1,3.218157806E0,1.411564636E1,9.123926624E1
1.491580654E1,7.088254898E1,3.172652435E0,5.477858734E0,7.116465703E1
1.492584554E1,4.449362503E1,2.346670074E0,1.840123444E0,4.459344776E1
1.493588454E1,3.193010101E1,1.835932159E0,5.522016907E-1,3.198760579E1
1.494592454E1,2.273412415E1,1.224154358E0,1.646575928E-3,2.276705860E1
1.495596354E1,1.607611954E1,7.705975342E-1,-3.028202820E-1,1.609742650E1
1.496600254E1,9.808952179E0,3.192860413E-1,-1.147798141E1,1.510170665E1
1.497604154E1,2.237546997E0,-1.296304321E0,-3.845323608E1,3.854008805E1
1.498608154E1,6.778354340E0,-2.603086853E0,-8.585695953E0,1.124439077E1
1.499612054E1,8.695866852E0,-2.442021790E0,1.528471527E0,9.160665693E0
1.500615954E1,6.261778564E0,-2.001487885E0,9.611512756E-1,6.643766727E0
1.501619854E1,3.967200165E0,-1.665586395E0,1.246907043E0,4.479691101E0
1.502623854E1,2.309846649E0,-1.422491913E0,1.413061523E0,3.058695417E0
1.503627754E1,5.215155029E-1,-1.414708099E0,1.465602264E0,2.102704788E0
1.504631654E1,-1.820065155E0,-1.698817291E0,1.441951447E0,2.877123795E0
1.505635554E1,-2.917283478E0,-1.805096283E0,1.531614990E0,3.756961533E0
1.506639454E1,-4.372706909E0,-1.689386902E0,1.506467285E0,4.923823463E0
1.507643454E1,-6.588549042E0,-1.399888916E0,1.370998993E0,6.873740299E0
1.508647354E1,-7.245832214E0,-3.373983765E-1,9.479786682E-1,7.315366409E0
1.509651254E1,-4.928501129E0,1.257834320E0,1.713337097E0,5.367289313E0
1.510655154E1,-1.297950897E0,2.642754364E0,4.285139008E0,5.199157958E0
1.511659154E1,3.569177856E0,4.223916321E0,9.793384552E0,1.124681647E1
1.512663054E1,7.943980408E0,4.445006561E0,1.408600800E1,1.677142001E1
1.513666954E1,1.126332779E1,3.999383240E0,1.454240891E1,1.882390172E1
1.514670854E1,1.201356766E1,3.790118408E0,1.110510681E1,1.679327850E1
1.515674754E1,1.036803955E1,3.064726868E0,6.233637085E0,1.247986483E1
1.516678754E1,7.795489197E0,2.151925049E0,2.650837555E0,8.510427309E0
1.517682654E1,5.441484375E0,1.399888916E0,3.215313721E-1,5.627861370E0
1.518686554E1,3.603606262E0,7.047344971E-1,-7.599696350E-1,3.749691007E0
1.519690454E1,2.091151428E0,2.621049500E-1,-1.360221405E0,2.508349173E0
1.520694454E1,7.599696350E-1,-7.334747314E-3,-1.223705292E0,1.440507649E0
1.521698354E1,-9.565109253E-2,1.332229614E-2,-1.019080811E0,1.023646576E0
1.522702254E1,-6.783892822E-1,2.918930054E-1,-8.460406494E-1,1.123030866E0
1.523706154E1,-1.293759613E0,6.354286194E-1,-6.108796692E-1,1.565489520E0
1.524710054E1,-1.919608154E0,9.397457886E-1,-1.499880981E-1,2.142548493E0
1.525714054E1,-2.067500610E0,1.192570038E0,2.974314880E-1,2.405254157E0
1.526717954E1,-1.823807373E0,1.363664246E0,6.361770630E-1,2.364439630E0
1.527721854E1,-1.480271759E0,1.409319305E0,8.969348145E-1,2.232011973E0
1.528725754E1,-1.139131165E0,1.387913818E0,1.020577698E0,2.065309520E0
1.529729754E1,-8.605604553E-1,1.359622650E0,9.964778137E-1,1.892645260E0
1.530733654E1,-6.511459351E-1,1.211580505E0,9.240284729E-1,1.657029562E0
1.531737554E1,-6.044430542E-1,1.006806335E0,9.325607300E-1,1.499559908E0
1.532741454E1,-5.219645691E-1,7.532336426E-1,8.625064087E-1,1.258461456E0
1.533745454E1,-2.597099304E-1,5.287005615E-1,7.138655090E-1,9.255147199E-1
1.534749354E1,3.670367432E-1,3.924838257E-1,5.944139099E-1,8.013035758E-1
1.535753254E1,1.506467285E0,4.328997803E-1,2.969824219E-1,1.595319548E0
1.536757154E1,2.508932648E0,4.032614136E-1,-3.921844482E-1,2.571219835E0
1.537761054E1,3.061882782E0,2.020797729E-1,-1.313069458E0,3.337680902E0
1.538765054E1,4.337230682E0,1.474433899E-1,-2.715054016E0,5.119065135E0
1.539768954E1,7.137906647E0,4.445755005E-1,-4.622537384E0,8.515586330E0
1.540772854E1,1.216804642E1,7.792794800E-1,-8.463100891E0,1.484226084E1
1.541776754E1,2.352073837E1,9.565109253E-2,-1.759456192E1,2.937350663E1
1.542780754E1,4.784680206E1,-2.864143982E0,-2.810585358E1,5.556490613E1
1.543784654E1,7.912635590E1,-9.047635345E0,-1.962419128E1,8.202407443E1
1.544788554E1,9.158045746E1,-4.869673462E0,-1.091829529E0,9.171633442E1
1.545792454E1,9.104816437E1,-1.201551361E0,1.096484848E1,9.171390223E1
1.546796454E1,6.897282028E1,2.574645996E-1,4.708758087E0,6.913384575E1
1.547800354E1,3.987288391E1,4.769082642E-1,2.646795959E0,3.996348135E1
1.548804254E1,2.862272873E1,6.286926270E-3,2.913541260E0,2.877063368E1
1.549808154E1,2.228221390E1,-5.128335571E-1,-1.196611633E0,2.232021357E1
1.550812154E1,7.395820313E0,-1.333217560E1,-4.869209427E1,5.102318207E1
1.551816054E1,2.289638672E0,-2.469010666E1,-5.679055344E1,6.196782045E1
1.552819971E1,8.017776947E0,-1.565055450E1,-1.384216507E1,2.237923451E1
1.553823871E1,6.662495270E0,-1.058778259E1,-4.163891144E0,1.318438368E1
1.554827771E1,4.691843262E0,-8.841364288E0,3.537144470E-1,1.001539962E1
1.555831771E1,2.380799103E0,-7.374714203E0,2.586471405E0,8.169727552E0
1.556835671E1,-3.224744110E0,-6.486161957E0,2.563569031E0,7.683824418E0
1.557839571E1,-1.039648041E1,-4.807253265E0,2.129322052E0,1.165034340E1
1.558843471E1,-1.097038696E1,-1.875599670E0,2.466720428E0,1.139964797E1
1.559847471E1,-6.228996735E0,1.781295776E-2,2.444566498E0,6.691533679E0
1.560851371E1,-3.045417023E0,1.598675537E0,1.830842743E0,3.896448827E0
1.561855271E1,-6.524931335E-1,2.612666931E0,2.423011322E0,3.622534976E0
1.562859171E1,9.990225220E-1,3.577710114E0,4.001029816E0,5.459514195E0
1.563863071E1,2.597997437E0,4.145329742E0,5.597160645E0,7.433811716E0
1.564867071E1,3.758833466E0,4.071233826E0,7.301666107E0,9.166138872E0
1.565870971E1,4.357887726E0,3.581302643E0,8.770262146E0,1.042757940E1
1.566874871E1,4.376000061E0,2.513423309E0,8.470884705E0,9.860150148E0
1.567878771E1,3.739373932E0,9.972262573E-1,6.282884674E0,7.379161025E0
1.568882771E1,3.497476959E0,-3.376977539E-1,4.817731476E0,5.962962471E0
1.569886671E1,3.773502960E0,-1.241667938E0,4.466711426E0,5.977673027E0
1.570890571E1,4.255201263E0,-1.568737793E0,4.897216187E0,6.674608785E0
1.571894471E1,5.302273865E0,-1.696571960E0,6.029910736E0,8.206843976E0
1.572898471E1,7.550299072E0,-2.166295166E0,7.816595306E0,1.108147161E1
1.573902371E1,1.154339539E1,-3.471880188E0,9.536518707E0,1.537039746E1
1.574906271E1,1.889400970E1,-5.149741058E0,9.809101868E0,2.190255499E1
1.575910171E1,2.883902893E1,-6.969207458E0,8.415050812E0,3.083946372E1
1.576914071E1,3.509467026E1,-9.073381805E0,6.169570312E0,3.676990258E1
1.577918071E1,3.286864929E1,-1.114642090E1,2.049537964E0,3.476767768E1
1.578921971E1,2.455987747E1,-1.211939758E1,-2.509980469E0,2.750213412E1
1.579925871E1,1.707409424E1,-1.043974045E1,-1.185070633E1,2.325837731E1
1.580929771E1,1.340222992E1,-6.294560394E0,-1.820454346E1,2.346586158E1
1.581933771E1,1.331121918E1,-3.431015167E0,-1.256367371E1,1.862273659E1
1.582937671E1,1.161330002E1,-2.296823730E0,-7.556286621E0,1.404427300E1
1.583941571E1,8.609496460E0,-1.633852386E0,-3.775149536E0,9.541732386E0
1.584945471E1,5.742957458E0,-1.066532135E0,-2.884052582E0,6.514354186E0
1.585949471E1,3.745511169E0,-4.167333984E-1,-2.013762360E0,4.272909955E0
1.586953371E1,2.478096771E0,3.984713745E-1,-8.514294434E-1,2.650410372E0
1.587957271E1,1.681902466E0,1.036295013E0,-4.049079895E-1,2.016594590E0
1.588961171E1,1.265917511E0,1.379082184E0,-2.029779053E-1,1.882980309E0
1.589965171E1,1.049467621E0,1.742676086E0,4.237687683E-1,2.077951443E0
1.590969071E1,1.043779449E0,2.443518677E0,8.913963318E-1,2.802649904E0
1.591972971E1,1.190624084E0,3.200344849E0,1.269659729E0,3.643052112E0
1.592976871E1,1.246907043E0,3.718417511E0,1.669178925E0,4.262342577E0
1.593980771E1,1.412163391E0,4.045337677E0,2.039209442E0,4.745243673E0
1.594984771E1,1.513502655E0,4.146976318E0,2.679278412E0,5.163974795E0
1.595988671E1,1.324745178E0,4.042792969E0,3.131488037E0,5.282550719E0
1.596992571E1,9.862989807E-1,3.973337402E0,3.820804596E0,5.599887816E0
1.597996471E1,4.400848389E-1,3.807931366E0,4.627177734E0,6.008726133E0
1.599000471E1,-4.251159668E-1,3.317251740E0,5.136718140E0,6.129498832E0
1.600004371E1,-1.221609650E0,2.791694641E0,4.565505981E0,5.489055836E0
1.601008271E1,-2.093696136E0,2.457739105E0,4.089346161E0,5.210258827E0
1.602012171E1,-2.842139740E0,2.083517303E0,3.515140228E0,4.977450500E0
1.603016071E1,-2.265389099E0,1.543290710E0,2.354304199E0,3.613375465E0
1.604020071E1,-1.499880981E-1,9.198371887E-1,1.117725677E0,1.455303258E0
1.605023971E1,1.424138489E0,6.222560120E-1,7.753875732E-1,1.736835878E0
1.606027871E1,2.531685333E0,9.208850098E-1,1.905687103E0,3.299864113E0
1.607031771E1,4.333338776E0,1.385668488E0,3.712130585E0,5.871781295E0
1.608035771E1,1.157707535E1,1.761836243E0,5.251828766E0,1.283411259E1
1.609039671E1,4.829227570E1,1.984123993E0,7.471113739E0,4.890703610E1
1.610043571E1,9.698541779E1,2.456691284E0,7.674391022E0,9.731959141E1
1.611047471E1,9.409043793E1,3.194207611E0,3.891307983E0,9.422502719E1
1.612051471E1,8.600754639E1,2.936892700E0,2.836750946E0,8.610441644E1
1.613055371E1,6.201618668E1,1.407223663E0,3.221450958E0,6.211574224E1
1.614059271E1,4.238331345E1,9.750723267E-1,1.571132813E0,4.242363119E1
1.615063171E1,3.220971954E1,5.179229736E-1,1.174158325E0,3.223527455E1
1.616067171E1,2.354169479E1,-1.317260742E-2,9.774673462E-1,2.356198230E1
1.617071071E1,1.642773834E1,-4.634362793E-1,-1.690734100E0,1.652101516E1
1.618074971E1,3.792064362E0,-5.947432251E0,-4.084136993E1,4.144597931E1
1.619078871E1,6.320456543E0,-8.012687531E0,-2.486449402E1,2.687739562E1
1.620082871E1,9.423503723E0,-7.086563416E0,-8.909322968E0,1.477828945E1
1.621086771E1,3.869303741E0,-7.270381165E0,-5.095553741E0,9.684762344E0
1.622090671E1,-1.231788483E0,-5.223986664E0,-7.349716187E-2,5.367750121E0
1.623094571E1,-3.663930817E0,-3.677702179E0,4.703219604E-1,5.212589097E0
1.624098471E1,-3.982618103E0,-2.739752655E0,6.057902527E-1,4.871803916E0
1.625102471E1,-4.986280975E0,-1.905687103E0,3.347039795E-1,5.348520174E0
1.626106371E1,-3.914659424E0,-9.506730652E-1,7.300318909E-1,4.094054744E0
1.627110271E1,-1.085841980E0,6.598278809E-1,1.444496155E0,1.923796969E0
1.628114171E1,-1.407672729E0,2.139500885E0,1.844464417E0,3.156113993E0
1.629118171E1,-2.542163544E0,2.159559174E0,2.848426666E0,4.386322580E0
1.630122071E1,-4.749323730E0,1.809886322E0,4.208648071E0,6.598824364E0
1.631125971E1,-8.121062164E0,9.627978516E-1,5.621260529E0,9.923567922E0
1.632129871E1,-1.031205597E1,1.336720276E-1,6.367608490E0,1.212034671E1
1.633133771E1,-1.034723282E1,-3.887416077E-1,6.312523041E0,1.212700681E1
1.634137771E1,-9.637857971E0,-5.369334412E-1,5.682034149E0,1.120098727E1
1.635141671E1,-8.236771545E0,-7.083270264E-1,4.442611542E0,9.385250661E0
1.636145571E1,-5.740861816E0,-9.422904968E-1,3.054098969E0,6.570610800E0
1.637149471E1,-3.740721130E0,-1.004411316E0,2.254761200E0,4.481716717E0
1.638153471E1,-2.629432068E0,-1.099463654E0,2.112706604E0,3.547712294E0
1.639157371E1,-2.159858551E0,-1.088087311E0,2.083816681E0,3.192368230E0
1.640161271E1,-1.877246246E0,-1.257085876E0,1.800605621E0,2.889030802E0
1.641165171E1,-1.171912994E0,-1.355131989E0,1.225501556E0,2.170625909E0
1.642169171E1,-5.715115356E-1,-1.296004944E0,8.741821289E-1,1.664466474E0
1.643173071E1,-3.391946411E-1,-1.189725952E0,7.632627869E-1,1.453640577E0
1.644176971E1,-2.368075562E-1,-1.105900269E0,7.310797119E-1,1.346688816E0
1.645180871E1,-2.017803955E-1,-1.107696533E0,6.256988525E-1,1.288101701E0
1.646184771E1,-1.505868530E-1,-1.132245483E0,5.736071777E-1,1.278155479E0
1.647188771E1,-7.214996338E-2,-1.162781982E0,5.664221191E-1,1.295415599E0
1.648192671E1,8.981323242E-2,-1.073417816E0,6.180647278E-1,1.241892198E0
1.649196571E1,2.082170105E-1,-1.015937347E0,7.734416199E-1,1.293713630E0
1.650200471E1,2.619552612E-1,-9.854008484E-1,9.541159058E-1,1.396414177E0
1.651204471E1,3.279679871E-1,-9.728269958E-1,1.078956299E0,1.489329399E0
1.652208346E1,4.842430115E-1,-8.660989380E-1,9.702822876E-1,1.387827937E0
1.653212246E1,7.357200623E-1,-7.349716187E-1,6.875202942E-1,1.246656105E0
1.654216146E1,9.999206543E-1,-6.465055847E-1,4.861889648E-1,1.286153372E0
1.655220146E1,1.228794708E0,-5.004093933E-1,4.293072510E-1,1.394507337E0
1.656224046E1,1.416803741E0,-3.308120728E-1,4.348457336E-1,1.518505937E0
1.657227946E1,1.708846436E0,-1.993853760E-1,6.194119263E-1,1.828546363E0
1.658231846E1,2.165097656E0,-1.580712891E-1,1.041085052E0,2.407590596E0
1.659235846E1,2.635569305E0,-2.498304749E-1,1.428629150E0,3.008258978E0
1.660239746E1,3.310515747E0,-3.171903992E-1,2.259251862E0,4.020490422E0
1.661243646E1,5.240452423E0,-1.929487610E-1,3.525319061E0,6.318816765E0
1.662247546E1,1.122815094E1,4.631369019E-1,5.660329285E0,1.258273408E1
1.663251446E1,2.927537155E1,2.291884003E0,1.179172897E1,3.164403552E1
1.664255446E1,6.687807632E1,5.095553741E0,2.150637726E1,7.043554517E1
1.665259346E1,9.756830566E1,6.232439575E0,2.381038605E1,1.006248084E2
1.666263246E1,8.654837173E1,5.053640900E0,1.643507309E1,8.823985247E1
1.667267146E1,6.330156372E1,3.132086792E0,7.043602753E0,6.376919536E1
1.668271146E1,4.280962692E1,1.385967865E0,8.906478882E-1,4.284131555E1
1.669275046E1,3.136083481E1,1.071920929E0,-4.046086121E-1,3.138175716E1
1.670278946E1,2.290491898E1,2.568658447E-1,-6.447093201E-1,2.291543025E1
