"Time (s)","Acceleration x (m/s^2)","Acceleration y (m/s^2)","Acceleration z (m/s^2)","Absolute acceleration (m/s^2)"
1.198458333E-3,-1.474284210E0,1.173260193E0,7.987090759E0,8.206319041E0
1.123829166E-2,-1.052012329E0,1.292262726E0,7.567213898E0,7.748509474E0
2.127729166E-2,-1.271905060E0,1.176403656E0,7.385491791E0,7.585984250E0
3.131729166E-2,-1.448537750E0,1.032852173E0,7.374564514E0,7.586122000E0
4.135629167E-2,-2.487976227E0,-4.625381470E-2,7.563172302E0,7.962018613E0
5.139529167E-2,-4.568350067E0,-9.584568787E-1,8.600964203E0,9.785961738E0
6.143529167E-2,-3.548371124E0,-3.906875610E-2,8.067772980E0,8.813706647E0
7.147429167E-2,-2.162103882E0,8.539741516E-1,7.848778381E0,8.185797892E0
8.151429166E-2,-1.468745728E0,1.158141632E0,7.613318024E0,7.839714114E0
9.155329166E-2,-1.517544250E0,9.213340759E-1,7.088359680E0,7.307300458E0
1.015922917E-1,-1.973047028E0,3.245251465E-1,6.752308502E0,7.042151749E0
1.116322917E-1,-2.176623688E0,-1.118174744E-1,6.762337646E0,7.104885944E0
1.216712917E-1,-2.026036835E0,-1.649569702E-1,6.843618622E0,7.139128231E0
1.317102917E-1,-1.739682312E0,1.725910950E-1,6.691235504E0,6.915845198E0
1.417502917E-1,-1.557211761E0,5.767506409E-1,5.928421783E0,6.156600898E0
1.517892917E-1,-1.694326630E0,8.134085083E-1,5.087021484E0,5.423113839E0
1.618292917E-1,-2.249372406E0,9.232800293E-1,4.644691315E0,5.242640522E0
1.718682917E-1,-2.550695801E0,9.238787842E-1,4.618196411E0,5.356056307E0
1.819072917E-1,-2.652633820E0,9.288185120E-1,5.000202026E0,5.735955920E0
1.919472917E-1,-2.909200287E0,7.765850830E-1,5.668562164E0,6.418654665E0
2.019862917E-1,-2.845133514E0,4.275109863E-1,6.353537750E0,6.974596211E0
2.120262917E-1,-2.477498016E0,8.936416626E-2,6.879244537E0,7.312317538E0
2.220652917E-1,-2.243235168E0,-7.783813477E-2,7.167994080E0,7.511211748E0
2.321042917E-1,-2.302362213E0,-1.869612122E-1,7.058272247E0,7.426643480E0
2.421442917E-1,-2.585124207E0,-4.411326599E-1,6.575975189E0,7.079612622E0
2.521832917E-1,-2.648143158E0,-7.625143433E-1,6.125112762E0,6.716479484E0
2.622232917E-1,-2.671344910E0,-6.686595154E-1,5.872887268E0,6.486446950E0
2.722622917E-1,-3.143163757E0,-3.475772095E-1,6.225553894E0,6.982679257E0
2.823012917E-1,-3.908671875E0,-3.719764709E-1,7.065906372E0,8.083508841E0
2.923412917E-1,-5.052892456E0,-8.678952026E-1,7.902067566E0,9.419534812E0
3.023802917E-1,-5.595364380E0,-1.697769470E0,8.444240112E0,1.027111069E1
3.124202917E-1,-5.280419312E0,-2.243235168E0,8.779542847E0,1.048786464E1
3.224592917E-1,-4.771777039E0,-2.155517578E0,9.216633911E0,1.060011570E1
3.324982917E-1,-4.227209473E0,-1.716929626E0,9.470655670E0,1.051239583E1
3.425382917E-1,-4.119882660E0,-1.313518524E0,9.370064850E0,1.031973252E1
3.525772917E-1,-4.560117188E0,-1.148411865E0,9.185798035E0,1.031951569E1
3.626172917E-1,-4.987029419E0,-1.268761597E0,9.006770325E0,1.037314466E1
3.726562917E-1,-5.259163513E0,-1.363514557E0,9.321416016E0,1.078919688E1
3.826952917E-1,-5.624254303E0,-1.368304596E0,1.019484970E1,1.172345744E1
3.927352917E-1,-5.918392639E0,-1.501377869E0,1.080767532E1,1.241319269E1
4.027742917E-1,-6.022426300E0,-1.917961578E0,1.091590027E1,1.261368597E1
4.128132917E-1,-6.051914978E0,-2.532284088E0,1.064466431E1,1.250388003E1
4.228532917E-1,-6.001619568E0,-2.996917877E0,1.011296997E1,1.213561353E1
4.328922917E-1,-6.274352417E0,-3.064726868E0,9.991422729E0,1.218969143E1
4.429322917E-1,-6.685098267E0,-2.958597565E0,1.036414764E1,1.268303571E1
4.529712917E-1,-6.672075348E0,-2.572550354E0,1.069046906E1,1.286159918E1
4.630102917E-1,-6.400390320E0,-1.866468658E0,1.117426300E1,1.301202732E1
4.730502917E-1,-6.027066650E0,-1.198557587E0,1.209963867E1,1.357067901E1
4.830892917E-1,-5.989045715E0,-1.029559021E0,1.279000305E1,1.416025559E1
4.931292917E-1,-6.526727600E0,-1.406175842E0,1.295466064E1,1.457390600E1
5.031682917E-1,-7.527546387E0,-1.875150604E0,1.285197418E1,1.501177487E1
5.132072917E-1,-8.272696838E0,-2.244133301E0,1.233270401E1,1.501896253E1
5.232472917E-1,-8.275241547E0,-2.513423309E0,1.136017639E1,1.427762330E1
5.332862917E-1,-7.834258575E0,-2.569107513E0,1.042222687E1,1.328904563E1
5.433262917E-1,-7.184609528E0,-2.314187622E0,9.484576721E0,1.212152111E1
5.533652917E-1,-6.484665070E0,-1.931882629E0,8.455017700E0,1.082914474E1
5.634042917E-1,-5.990692291E0,-1.681303711E0,7.529642029E0,9.767839340E0
5.734442917E-1,-5.750441895E0,-1.692829742E0,6.974446564E0,9.196529747E0
5.834832917E-1,-5.881419525E0,-1.812131653E0,6.838080139E0,9.199687861E0
5.935232917E-1,-6.313121796E0,-1.862876129E0,6.944508820E0,9.568281822E0
6.035622917E-1,-6.793472900E0,-1.851050720E0,6.669830017E0,9.698674924E0
6.136012917E-1,-7.493567047E0,-1.691033478E0,6.338119812E0,9.959161815E0
6.236412917E-1,-8.017178192E0,-1.658551025E0,6.365662537E0,1.037051576E1
6.336802917E-1,-8.047864380E0,-1.844165039E0,6.551575928E0,1.054002908E1
6.437202917E-1,-8.080197144E0,-1.896256714E0,6.600673828E0,1.060444578E1
6.537592917E-1,-7.881410522E0,-1.991309052E0,6.253545685E0,1.025615801E1
6.637982917E-1,-7.390431519E0,-2.531385956E0,5.837860107E0,9.752281965E0
6.738382917E-1,-7.217241669E0,-3.002905426E0,5.637726288E0,9.637944594E0
6.838772917E-1,-7.705226898E0,-3.036884766E0,4.617897034E0,9.482518845E0
6.939162917E-1,-8.212222595E0,-3.169209595E0,3.369343414E0,9.425336304E0
7.039562917E-1,-8.747659149E0,-3.173849945E0,2.506687317E0,9.637341198E0
7.139952917E-1,-9.425449677E0,-2.620151367E0,1.607207794E0,9.914000791E0
7.240352917E-1,-9.817783813E0,-2.093696136E0,1.403331757E0,1.013616212E1
7.340742917E-1,-1.030996033E1,-1.845362549E0,2.208507385E0,1.070411835E1
7.441132917E-1,-1.129506180E1,-1.814676361E0,2.611469421E0,1.173419123E1
7.541532917E-1,-1.184441940E1,-2.240091705E0,2.194586334E0,1.225252998E1
7.641922917E-1,-1.158620636E1,-2.935994568E0,2.022743683E0,1.212236503E1
7.742322917E-1,-1.088386688E1,-3.238066406E0,1.886976013E0,1.151105168E1
7.842712917E-1,-1.056847275E1,-2.966680756E0,1.321601715E0,1.105623996E1
7.943102917E-1,-1.060978683E1,-2.699187012E0,7.740403748E-1,1.097507748E1
8.043502917E-1,-1.026490402E1,-2.596949615E0,2.779719543E-1,1.059196253E1
8.143892917E-1,-1.043345352E1,-2.122586060E0,-3.390449524E-1,1.065257131E1
8.244292917E-1,-1.131856293E1,-1.529369659E0,-6.842271423E-1,1.144189692E1
8.344682917E-1,-1.182510956E1,-1.265767822E0,-7.511380005E-1,1.191635819E1
8.445072917E-1,-1.200802917E1,-1.297651520E0,-8.684939575E-1,1.210912655E1
8.545472917E-1,-1.197479828E1,-1.607357483E0,-1.041983185E0,1.212704089E1
8.645862917E-1,-1.191162964E1,-1.880539398E0,-8.280780029E-1,1.208755816E1
8.746252917E-1,-1.035426819E1,-2.064207458E0,-8.689430237E-1,1.059371909E1
8.846652917E-1,-1.013183075E1,-2.139949951E0,2.082170105E-1,1.035744826E1
8.947042917E-1,-1.033675461E1,-2.075434113E0,1.000968475E0,1.059046082E1
9.047442917E-1,-1.004965164E1,-2.239343262E0,1.056353302E0,1.035017095E1
9.147832917E-1,-9.625284119E0,-2.286195831E0,6.185137939E-1,9.912383420E0
9.248222917E-1,-9.458081818E0,-2.063009949E0,-2.429447937E-1,9.683508863E0
9.348622917E-1,-9.647887115E0,-1.939067688E0,-1.339264984E0,9.931532610E0
9.449012917E-1,-7.404502258E0,-2.223625946E0,-2.308349762E0,8.068435082E0
9.549412917E-1,-5.217849426E0,-1.590143280E0,-3.027154999E0,6.238443369E0
9.649802917E-1,-3.863615570E0,-8.295748901E-1,-2.888543243E0,4.894834200E0
9.750192917E-1,-2.998714142E0,-6.777905273E-1,-2.701132965E0,4.092408313E0
9.850592917E-1,-2.890638885E0,-4.092489624E-1,-2.443518677E0,3.807106697E0
9.950982917E-1,-3.335663452E0,4.490661621E-3,-1.981279907E0,3.879708868E0
1.005138292E0,-3.783382416E0,4.587959290E-1,-1.300196228E0,4.026783635E0
1.015177917E0,-2.876568146E0,8.725355530E-1,-1.483265533E0,3.352020172E0
1.025216917E0,-2.445464630E0,8.405021667E-1,-1.654509430E0,3.069876643E0
1.035256917E0,-2.581831055E0,4.965174866E-1,-1.613195343E0,3.084603771E0
1.045295917E0,-3.840862885E0,-9.939331055E-2,-1.623523865E0,4.171083369E0
1.055335917E0,-7.681875458E0,-7.535330200E-1,-1.492995300E0,7.861810067E0
1.065374917E0,-1.086111420E1,-1.779050446E0,-1.291514282E0,1.108137317E1
1.075413917E0,-1.303070251E1,-2.760858765E0,-1.158590698E0,1.337026109E1
1.085453917E0,-1.535970932E1,-3.382665710E0,-1.620081024E0,1.581100124E1
1.095492917E0,-1.711959961E1,-4.020339661E0,-2.637964325E0,1.778208867E1
1.105531917E0,-1.971684860E1,-4.845573578E0,-3.809577942E0,2.065784563E1
1.115571917E0,-2.326671661E1,-6.121071167E0,-4.844226379E0,2.454127428E1
1.125610917E0,-2.710308884E1,-8.557704163E0,-5.264851685E0,2.890554252E1
1.135650917E0,-3.084590561E1,-1.112756012E1,-5.225932617E0,3.320546429E1
1.145689917E0,-3.295472031E1,-1.345701599E1,-5.175786896E0,3.597073310E1
1.155728917E0,-3.366424484E1,-1.449810104E1,-4.336332550E0,3.690907876E1
1.165768917E0,-3.229713776E1,-1.380489258E1,-3.517385559E0,3.529946413E1
1.175807917E0,-3.008129562E1,-1.253268814E1,-3.335962830E0,3.275791914E1
1.185847917E0,-2.750141052E1,-1.137065460E1,-3.788022766E0,2.999947472E1
1.195886917E0,-2.401830368E1,-9.722132721E0,-3.977528687E0,2.621487194E1
1.205925917E0,-1.954560471E1,-7.766449585E0,-3.222947845E0,2.127758904E1
1.215965917E0,-1.497336273E1,-6.145021362E0,-1.595831451E0,1.626374978E1
1.226004917E0,-1.138966507E1,-4.473896484E0,-1.296304321E-1,1.223752525E1
1.236044917E0,-9.339228973E0,-2.710563354E0,7.610174561E-1,9.754357953E0
1.246083917E0,-7.246880035E0,-1.101110229E0,1.837878113E0,7.556951101E0
1.256122917E0,-4.470303955E0,7.339237976E-1,2.778072968E0,5.314127492E0
1.266162917E0,-1.178349609E0,2.840642853E0,3.121907959E0,4.382244736E0
1.276201917E0,1.558858337E0,4.374952240E0,2.949466553E0,5.501781472E0
1.286240917E0,2.831511841E0,4.743336182E0,2.226020966E0,5.955826288E0
1.296280917E0,2.774779816E0,4.159400482E0,1.160237274E0,5.132851637E0
1.306319917E0,2.108964386E0,3.228336639E0,4.851411438E-1,3.886547333E0
1.316359917E0,1.446741486E0,2.352208557E0,1.118174744E-1,2.763774443E0
1.326398917E0,9.448352051E-1,1.740580444E0,-4.358935547E-1,2.027889800E0
1.336437917E0,6.161187744E-1,1.380279694E0,-8.863069153E-1,1.752231242E0
1.346477917E0,2.365081787E-1,1.404828644E0,-1.228195953E0,1.880942566E0
1.356516917E0,-3.821553040E-1,1.595382385E0,-1.489253082E0,2.215662965E0
1.366556917E0,-9.529183960E-1,1.628164215E0,-1.577270050E0,2.459014638E0
1.376595917E0,-1.631457367E0,1.677112427E0,-1.639540558E0,2.857000608E0
1.386634917E0,-2.266287231E0,1.816173248E0,-1.725012817E0,3.377900576E0
1.396674917E0,-2.712060242E0,1.792672119E0,-1.736838226E0,3.685858259E0
1.406713917E0,-2.987038422E0,1.635648651E0,-1.748663635E0,3.828259337E0
1.416753917E0,-2.960693207E0,1.381926270E0,-1.803898773E0,3.732221224E0
1.426792917E0,-2.725232849E0,1.163979492E0,-1.712888031E0,3.422824528E0
1.436831917E0,-2.604134674E0,9.358538818E-1,-1.515448608E0,3.154984053E0
1.446871917E0,-2.631677399E0,8.053253174E-1,-1.377435608E0,3.077597058E0
1.456910917E0,-2.794239349E0,8.681945801E-1,-1.214424591E0,3.168021852E0
1.466950917E0,-2.805316315E0,1.075962524E0,-9.617500305E-1,3.154751670E0
1.476989917E0,-2.545905762E0,1.313817902E0,-8.075706482E-1,2.976562443E0
1.487028917E0,-2.161954193E0,1.475781097E0,-7.192543030E-1,2.714645931E0
1.497068917E0,-1.896256714E0,1.541494446E0,-7.158114624E-1,2.546444718E0
1.507107917E0,-1.689985657E0,1.549128571E0,-9.442364502E-1,2.479401807E0
1.517147917E0,-1.431922302E0,1.439706116E0,-1.233135681E0,2.375663862E0
1.527186917E0,-1.174607391E0,1.270557861E0,-1.384321289E0,2.215934393E0
1.537225917E0,-8.250842285E-1,1.117426300E0,-1.410067749E0,1.979317200E0
1.547265917E0,-5.252577209E-1,9.232800293E-1,-1.350940704E0,1.718540797E0
1.557304917E0,-6.186634827E-1,6.481521606E-1,-1.360670471E0,1.629193009E0
1.567343917E0,-8.083190918E-1,4.802014160E-1,-1.284329224E0,1.591689263E0
1.577383917E0,-1.030008087E0,3.550616455E-1,-1.000669098E0,1.479298508E0
1.587422917E0,-1.756597137E0,1.204994202E-1,-7.753875732E-1,1.923896957E0
1.597462917E0,-2.672542419E0,-1.637594604E-1,-6.002517700E-1,2.744012087E0
1.607501917E0,-4.206253052E0,-7.438032532E-1,-5.622308350E-1,4.308353691E0
1.617540917E0,-6.680008850E0,-1.412313080E0,-6.619235229E-1,6.859685796E0
1.627580917E0,-9.379195862E0,-2.236648865E0,-4.966671753E-1,9.654977547E0
1.637619917E0,-1.320299423E1,-3.847299500E0,-6.852749634E-1,1.376918196E1
1.647659917E0,-1.681483337E1,-5.807173920E0,-1.043330383E0,1.781994469E1
1.657698917E0,-2.050540878E1,-8.095315704E0,-1.246607666E0,2.208075987E1
1.667737917E0,-2.396486481E1,-1.052506302E1,-1.753004608E0,2.623289389E1
1.677777917E0,-2.636572220E1,-1.223331070E1,-2.609822845E0,2.918246688E1
1.687816917E0,-2.941577957E1,-1.345402222E1,-3.469036102E0,3.253203057E1
1.697856917E0,-3.308435074E1,-1.525732224E1,-4.286635895E0,3.668426629E1
1.707895917E0,-3.486130554E1,-1.729413666E1,-5.267995148E0,3.927021212E1
1.717934917E0,-3.393727707E1,-1.769664963E1,-6.172115021E0,3.876861084E1
1.727974917E0,-2.978536102E1,-1.579739914E1,-5.817053375E0,3.421350115E1
1.738013917E0,-2.304457855E1,-1.238045471E1,-4.038152618E0,2.646950956E1
1.748053917E0,-1.592852646E1,-8.669371948E0,-2.023941193E0,1.824752868E1
1.758092917E0,-1.031789383E1,-5.242997131E0,1.173559570E-1,1.157418353E1
1.768131917E0,-6.627468109E0,-2.538421326E0,2.114652557E0,7.405313755E0
1.778171917E0,-4.816683655E0,-8.716374207E-1,2.923869781E0,5.701684639E0
1.788210917E0,-4.406087494E0,-3.574566650E-1,2.639910278E0,5.148835650E0
1.798249917E0,-5.349126434E0,-3.326083374E-1,1.670975189E0,5.613905949E0
1.808289917E0,-6.610852661E0,1.571731567E-2,2.306703186E-1,6.614894462E0
1.818328917E0,-6.897057495E0,6.644682312E-1,-1.018332367E0,7.003422087E0
1.828368917E0,-6.503525848E0,1.333726501E0,-1.985770569E0,6.929499231E0
1.838407917E0,-5.809718628E0,1.872605896E0,-2.801574097E0,6.716271346E0
1.848446917E0,-5.010081482E0,2.121837616E0,-3.381767578E0,6.406205060E0
1.858486917E0,-4.270319824E0,2.043700104E0,-3.463347931E0,5.865758298E0
1.868525917E0,-3.725602570E0,1.768422546E0,-3.146606598E0,5.187346710E0
1.878565917E0,-3.420237579E0,1.359622650E0,-2.580633545E0,4.495138301E0
1.888604917E0,-3.267704773E0,8.680448914E-1,-1.842518463E0,3.850489671E0
1.898643917E0,-3.078049164E0,3.972738647E-1,-1.106948090E0,3.295079248E0
1.908683917E0,-2.804867249E0,8.232879639E-3,-4.346960449E-1,2.838363739E0
1.918722917E0,-2.819237366E0,-4.037104797E-1,1.254391479E-1,2.850757172E0
1.928762917E0,-3.505111084E0,-8.348139954E-1,4.056564331E-1,3.625917161E0
1.938801917E0,-4.886588287E0,-1.353186035E0,5.786965942E-1,5.103405459E0
1.948840917E0,-7.419770508E0,-2.016157379E0,5.568420410E-1,7.708953108E0
1.958880917E0,-9.890682220E0,-2.798280945E0,4.137396240E-1,1.028723245E1
1.968919917E0,-1.191986252E1,-4.030518494E0,3.487747192E-1,1.258768627E1
1.978959917E0,-1.298444870E1,-4.965324554E0,2.541714478E-1,1.390377499E1
1.988998917E0,-1.331930237E1,-5.519023132E0,2.848576355E-1,1.442028348E1
1.999037917E0,-1.356239685E1,-5.906417542E0,5.186714172E-1,1.480180383E1
2.009077917E0,-1.370205643E1,-6.127358093E0,4.198768616E-1,1.501556406E1
2.019117292E0,-1.376133316E1,-6.176306305E0,-4.834945679E-2,1.508387840E1
2.029156292E0,-1.366179016E1,-6.105952606E0,-5.924679565E-1,1.497592020E1
2.039196292E0,-1.365490448E1,-5.915099487E0,-1.153052216E0,1.492562721E1
2.049235292E0,-1.386851028E1,-5.592220917E0,-1.780996399E0,1.505923174E1
2.059275292E0,-1.419378387E1,-5.107528839E0,-2.452799377E0,1.528288508E1
2.069314292E0,-1.403511383E1,-4.427193604E0,-2.979553986E0,1.501539894E1
2.079353292E0,-1.310449905E1,-3.747756500E0,-3.214265900E0,1.400375234E1
2.089393292E0,-1.188154221E1,-3.136876831E0,-3.077001343E0,1.266802979E1
2.099432292E0,-1.041579025E1,-2.575394440E0,-2.765648804E0,1.108016951E1
2.109472292E0,-8.914412384E0,-1.950144653E0,-2.456242218E0,9.450023183E0
2.119511292E0,-7.555238800E0,-1.360670471E0,-2.255809021E0,8.001358122E0
2.129550292E0,-6.362968140E0,-9.047186279E-1,-2.179168396E0,6.786357951E0
2.139590292E0,-5.384003906E0,-6.852749634E-1,-2.112407227E0,5.824033321E0
2.149629292E0,-4.793032837E0,-6.962022400E-1,-2.122436371E0,5.287967235E0
2.159669292E0,-4.674629059E0,-7.455995178E-1,-2.168390808E0,5.206725859E0
2.169708292E0,-4.612508240E0,-7.686515808E-1,-2.133513336E0,5.139838195E0
2.179747292E0,-4.655169525E0,-7.602690125E-1,-1.874252472E0,5.075572343E0
2.189787292E0,-4.839885406E0,-7.439529419E-1,-1.521585846E0,5.127687609E0
2.199826292E0,-4.564009094E0,-7.707472229E-1,-1.078806610E0,4.752689133E0
2.209865292E0,-4.221371613E0,-8.196954346E-1,-6.192622375E-1,4.344578762E0
2.219905292E0,-3.999233551E0,-7.550299072E-1,-3.161425781E-1,4.082142242E0
2.229944292E0,-3.619772644E0,-6.029461670E-1,-1.345701599E-1,3.672112090E0
2.239984292E0,-3.285368042E0,-4.480183411E-1,-1.167572021E-2,3.315795520E0
2.250023292E0,-3.122057648E0,-4.385879517E-1,-2.404000854E-1,3.161865833E0
2.260062292E0,-3.066822510E0,-6.607260132E-1,-7.099736023E-1,3.216523230E0
2.270102292E0,-3.514990540E0,-8.780740356E-1,-1.059796143E0,3.774829846E0
2.280141292E0,-4.401896210E0,-1.181493073E0,-1.096769257E0,4.687805342E0
2.290181292E0,-5.651198273E0,-2.027234344E0,-7.691006470E-1,6.052870130E0
2.300220292E0,-7.656578064E0,-3.291056213E0,-1.661544800E-1,8.335577122E0
2.310259292E0,-1.089284821E1,-4.924609222E0,3.591032410E-1,1.195971877E1
2.320299292E0,-1.477143265E1,-6.698121185E0,6.373745728E-1,1.623164490E1
2.330338292E0,-1.958676910E1,-8.772657166E0,4.974156189E-1,2.146738130E1
2.340378292E0,-2.459954498E1,-1.094703552E1,-1.570234680E-1,2.692582137E1
2.350417292E0,-2.777249680E1,-1.275781998E1,-6.753955078E-1,3.057007864E1
2.360456292E0,-3.015943314E1,-1.433823349E1,-1.187779999E0,3.341537323E1
2.370496292E0,-3.123943726E1,-1.538530609E1,-1.852846985E0,3.487180990E1
2.380535292E0,-3.108645538E1,-1.582299591E1,-2.577340393E0,3.497681505E1
2.390575292E0,-3.051105194E1,-1.569201828E1,-3.125350800E0,3.445187289E1
2.400614292E0,-2.976305740E1,-1.531749710E1,-3.366499329E0,3.364221487E1
2.410653292E0,-2.836571320E1,-1.464270035E1,-3.349434814E0,3.209736862E1
2.420693292E0,-2.574556183E1,-1.317619995E1,-2.939587097E0,2.907038650E1
2.430732292E0,-2.196068253E1,-1.076785812E1,-2.013163605E0,2.454121377E1
2.440771292E0,-1.762689468E1,-7.864495697E0,-9.086105347E-1,1.932312816E1
2.450811292E0,-1.313488586E1,-4.802014160E0,1.836680603E-1,1.398636124E1
2.460850292E0,-8.721912689E0,-1.648072815E0,1.220861206E0,8.959821820E0
2.470890292E0,-5.435796204E0,1.381926270E0,1.907633057E0,5.924243788E0
2.480929292E0,-3.521127777E0,3.647165680E0,2.098785553E0,5.486807735E0
2.490968292E0,-2.365231476E0,4.785997467E0,2.294578400E0,5.810781507E0
2.501008292E0,-1.707050171E0,5.134173431E0,2.453996887E0,5.941031714E0
2.511047292E0,-1.256038055E0,5.211712189E0,2.488574982E0,5.910379089E0
2.521087292E0,-6.334826660E-1,5.133424988E0,2.752625885E0,5.859206572E0
2.531126292E0,-7.529342651E-2,4.702321472E0,3.125799866E0,5.646956802E0
2.541165292E0,1.977388000E-1,4.028422852E0,3.455414429E0,5.311043229E0
2.551205292E0,2.642005920E-1,3.336711273E0,3.641627197E0,4.946199826E0
2.561244292E0,2.293231201E-1,2.720293121E0,3.670966187E0,4.574776115E0
2.571284292E0,1.534309387E-1,2.228865051E0,3.368744659E0,4.042254451E0
2.581323292E0,4.161346436E-2,1.785936127E0,2.891087952E0,3.398483349E0
2.591362292E0,-2.050735474E-1,1.414109344E0,2.411036224E0,2.802651615E0
2.601402292E0,-5.544470215E-1,1.099164276E0,2.001637573E0,2.349920548E0
2.611441292E0,-1.087787933E0,8.881031799E-1,1.501677246E0,2.055977723E0
2.621480292E0,-1.792372742E0,7.497908020E-1,9.964778137E-1,2.183518794E0
2.631520292E0,-2.208956451E0,6.074368286E-1,7.129673767E-1,2.399331279E0
2.641559292E0,-2.242935791E0,4.770579529E-1,5.233117676E-1,2.352063022E0
2.651599292E0,-1.971101074E0,4.071533203E-1,3.474275208E-1,2.042478679E0
2.661638292E0,-1.431622925E0,4.300556946E-1,3.709286499E-1,1.540155889E0
2.671677292E0,-7.942483521E-1,5.065466309E-1,5.522016907E-1,1.091946263E0
2.681717292E0,-2.110610962E-1,5.571414185E-1,7.566764832E-1,9.630745800E-1
2.691756292E0,2.038760376E-1,5.685177612E-1,9.669891357E-1,1.140107834E0
2.701796292E0,3.204835510E-1,6.369255066E-1,9.659413147E-1,1.200594199E0
2.711835292E0,1.597178650E-1,6.987469482E-1,7.789801025E-1,1.058568417E0
2.721874292E0,-1.245410156E-1,7.393125916E-1,5.035528564E-1,9.031384456E-1
2.731914292E0,-4.818479919E-1,8.373587036E-1,1.630110168E-1,9.797549068E-1
2.741953292E0,-9.274713135E-1,9.515711975E-1,-2.435435486E-1,1.350927178E0
2.751993292E0,-1.305435333E0,1.089584198E0,-5.857319641E-1,1.798454077E0
2.762032292E0,-1.473535767E0,1.124910736E0,-6.908134460E-1,1.978371815E0
2.772071292E0,-1.544188843E0,9.630972290E-1,-6.403683472E-1,1.929286675E0
2.782111292E0,-1.454225922E0,7.821235657E-1,-5.236111450E-1,1.732241015E0
2.792150292E0,-1.428928528E0,5.774990845E-1,-2.522254944E-1,1.561716885E0
2.802189292E0,-1.684297485E0,9.639953613E-2,1.360670471E-1,1.692532165E0
2.812229292E0,-2.303410034E0,-5.734574890E-1,5.767506409E-1,2.442783777E0
2.822268292E0,-4.542304230E0,-1.563498688E0,8.888516235E-1,4.885397944E0
2.832308292E0,-8.373287659E0,-3.174897766E0,8.728349304E-1,8.997430903E0
2.842347292E0,-1.293430298E1,-5.579197998E0,6.972500610E-1,1.410353862E1
2.852386292E0,-1.896017212E1,-8.591084747E0,3.221301270E-1,2.081822835E1
2.862426292E0,-2.394121399E1,-1.167302582E1,5.628295898E-2,2.663539800E1
2.872465292E0,-2.741174698E1,-1.457070007E1,-4.474195862E-1,3.104688966E1
2.882505292E0,-3.032094727E1,-1.709654755E1,-1.334924011E0,3.483437674E1
2.892544292E0,-3.132490952E1,-1.836620728E1,-2.887645111E0,3.642672124E1
2.902583292E0,-2.957444962E1,-1.753768021E1,-4.227359161E0,3.464229875E1
2.912623292E0,-2.613325562E1,-1.483609818E1,-4.210594025E0,3.034445518E1
2.922662292E0,-2.236678802E1,-1.132395172E1,-3.421584778E0,2.530241750E1
2.932702292E0,-1.950324280E1,-8.391849060E0,-2.515968018E0,2.138059179E1
2.942741292E0,-1.805784851E1,-6.148464203E0,-1.713187408E0,1.915266342E1
2.952780292E0,-1.705074280E1,-4.543052673E0,-9.048683167E-1,1.766878446E1
2.962820292E0,-1.605516312E1,-3.435356140E0,1.028361511E-1,1.641890708E1
2.972859292E0,-1.496348328E1,-2.425556030E0,8.503816223E-1,1.518263161E1
2.982898292E0,-1.358919113E1,-1.295106812E0,1.053359528E0,1.369134703E1
2.992938292E0,-1.216041229E1,-1.739382935E-1,1.185983734E0,1.221934692E1
3.002977292E0,-1.061801971E1,7.936495972E-1,1.196611633E0,1.071466760E1
3.013017417E0,-9.145681458E0,1.414708099E0,7.382647705E-1,9.283852821E0
3.023056417E0,-7.604187012E0,1.189576263E0,-4.031117249E-1,7.707220696E0
3.033095417E0,-5.661676483E0,3.701802063E-1,-1.757345581E0,5.939686648E0
3.043135417E0,-3.330873413E0,-6.661148071E-2,-2.546953583E0,4.193581683E0
3.053174417E0,-1.165027313E0,-3.203338623E-2,-2.118544464E0,2.417963074E0
3.063214417E0,4.909790039E-2,-2.517764282E-1,-9.463320923E-1,9.804827395E-1
3.073253417E0,1.111139374E0,-9.454339600E-1,-4.935237122E-1,1.540143414E0
3.083292417E0,2.014660492E0,-1.319655762E0,-5.691165161E-1,2.474720557E0
3.093332417E0,1.328188019E0,-1.523382111E0,-1.254690857E0,2.378870660E0
3.103371417E0,-9.565109253E-2,-1.652862854E0,-2.578537903E0,3.064304564E0
3.113411417E0,-1.405277710E0,-1.658401337E0,-3.474125519E0,4.098127445E0
3.123450417E0,-3.294049988E0,-2.210902405E0,-3.333268433E0,5.181653521E0
3.133489417E0,-5.669160919E0,-3.318748627E0,-2.505340118E0,7.030661924E0
3.143529417E0,-8.138725433E0,-4.675676880E0,-1.699715424E0,9.538859391E0
3.153568417E0,-1.067235672E1,-5.963149567E0,-1.264270935E0,1.229051389E1
3.163607417E0,-1.351659210E1,-6.802603912E0,-1.288221130E0,1.518661238E1
3.173647417E0,-1.648791321E1,-7.125183105E0,-1.798659668E0,1.805144573E1
3.183686417E0,-1.928948730E1,-6.927593994E0,-2.488425293E0,2.064626212E1
3.193726417E0,-1.990710297E1,-6.240522766E0,-2.946173401E0,2.106933342E1
3.203765417E0,-1.834150864E1,-5.052144012E0,-3.274440765E0,1.930432751E1
3.213804417E0,-1.578482529E1,-3.825894012E0,-3.539689178E0,1.662310362E1
3.223844417E0,-1.311048660E1,-3.003803558E0,-3.588038635E0,1.392055013E1
3.233883417E0,-1.111618378E1,-2.744842072E0,-3.135529633E0,1.187161513E1
3.243923417E0,-1.004381378E1,-2.971770172E0,-2.353106689E0,1.073530271E1
3.253962417E0,-9.484427032E0,-3.373534698E0,-1.681004333E0,1.020592319E1
3.264001417E0,-8.934320984E0,-3.642675018E0,-1.259331207E0,9.730215199E0
3.274041417E0,-8.151748352E0,-3.643722839E0,-1.051712952E0,8.990762896E0
3.284080417E0,-7.243736572E0,-3.308719482E0,-8.958869934E-1,8.013860346E0
3.294119417E0,-6.639592896E0,-2.720891876E0,-8.234376526E-1,7.222568517E0
3.304159417E0,-6.545738068E0,-2.127076721E0,-1.054706726E0,6.963012890E0
3.314198417E0,-6.264772339E0,-1.717229004E0,-1.211131439E0,6.607805027E0
3.324238417E0,-5.922284546E0,-1.478774872E0,-1.389410706E0,6.260246918E0
3.334277417E0,-5.057233429E0,-1.267713776E0,-1.513203278E0,5.428857369E0
3.344316417E0,-4.019291840E0,-1.039438477E0,-1.189875641E0,4.318673787E0
3.354356417E0,-3.414250031E0,-1.018931122E0,-7.518864441E-1,3.641518519E0
3.364395417E0,-2.875071259E0,-1.167572021E0,-3.823049927E-1,3.126566211E0
3.374435417E0,-2.843337250E0,-1.199006653E0,4.161346436E-2,3.086084145E0
3.384474417E0,-3.880979462E0,-1.363065491E0,6.436614990E-3,4.113391611E0
3.394513417E0,-4.713548126E0,-1.693278809E0,-3.806584167E-1,5.022910500E0
3.404553417E0,-5.879174194E0,-2.016905823E0,-7.179071045E-1,6.256835375E0
3.414592417E0,-7.170987854E0,-1.897903290E0,-1.128203888E0,7.503195833E0
3.424632417E0,-8.168214111E0,-1.812580719E0,-1.523082733E0,8.504407777E0
3.434671417E0,-1.081246536E1,-2.228116608E0,-2.674488373E0,1.135899639E1
3.444710417E0,-1.181702637E1,-2.975213013E0,-3.473526764E0,1.267120329E1
3.454750417E0,-1.153770721E1,-3.760180664E0,-3.419938202E0,1.260768114E1
3.464789417E0,-1.146271317E1,-4.759801941E0,-3.258124695E0,1.283218158E1
3.474828417E0,-1.276395721E1,-6.454128571E0,-3.095862122E0,1.463416351E1
3.484868417E0,-1.742047394E1,-8.365952911E0,-3.739224243E0,1.968359414E1
3.494907417E0,-2.354124573E1,-1.036025574E1,-5.106481018E0,2.622215281E1
3.504947417E0,-2.790646820E1,-1.191118057E1,-6.559210052E0,3.104304152E1
3.514986417E0,-3.195375183E1,-1.268716690E1,-8.220156097E0,3.534936246E1
3.525025417E0,-3.575898880E1,-1.425156372E1,-9.794132996E0,3.972074256E1
3.535065417E0,-3.784475143E1,-1.594559097E1,-1.070708450E1,4.243970713E1
3.545104417E0,-3.659065933E1,-1.750519775E1,-1.061652283E1,4.192873544E1
3.555144417E0,-3.181708603E1,-1.685210587E1,-7.352410583E0,3.674749484E1
3.565183417E0,-2.313049988E1,-1.359936996E1,-1.958527222E0,2.690350752E1
3.575222417E0,-1.366463425E1,-9.202712860E0,3.561843109E0,1.685523300E1
3.585262417E0,-7.559879150E0,-5.252577209E0,6.607709198E0,1.133151186E1
3.595301417E0,-4.413871307E0,-2.954855347E0,6.200406189E0,8.164463666E0
3.605340417E0,-2.297871552E0,-1.253792725E0,3.837270355E0,4.645089196E0
3.615380417E0,-1.580712891E-1,7.470964050E-1,1.271905060E0,1.483537007E0
3.625419417E0,1.994452515E0,2.414179688E0,-9.587562561E-1,3.274953123E0
3.635459417E0,3.177292786E0,2.895728302E0,-2.773432617E0,5.115892916E0
3.645498417E0,3.324137421E0,2.758763123E0,-4.257296906E0,6.065083717E0
3.655537417E0,3.048859863E0,2.638712769E0,-5.230572968E0,6.604335327E0
3.665577417E0,1.815724182E0,2.040706329E0,-5.852080536E0,6.458187302E0
3.675616417E0,-1.868115234E-1,1.237626343E0,-6.052663422E0,6.180724230E0
3.685656417E0,-1.299148407E0,1.025667114E0,-5.586233368E0,5.826300958E0
3.695695417E0,-1.481918335E0,9.252259827E-1,-4.959786072E0,5.258479148E0
3.705734417E0,-1.355131989E0,6.026467896E-1,-3.926784210E0,4.197523090E0
3.715774417E0,-1.170865173E0,6.459068298E-1,-2.269730072E0,2.634349158E0
3.725813417E0,-8.421487427E-1,7.866142273E-1,-8.900491333E-1,1.456078263E0
3.735853417E0,-7.524851990E-1,5.909710693E-1,2.948867798E-2,9.572619086E-1
3.745892417E0,-8.122109985E-1,6.032455444E-1,1.030457153E0,1.444103126E0
3.755931417E0,-7.990383911E-1,6.355783081E-1,1.644031219E0,1.935267627E0
3.765971417E0,-1.543141022E0,3.161425781E-1,1.513652344E0,2.184576334E0
3.776010417E0,-2.554138641E0,4.463717651E-1,1.413360901E0,2.953042666E0
3.786050417E0,-2.379601593E0,6.936575317E-1,1.323996735E0,2.810094637E0
3.796089417E0,-1.500180359E0,6.635700989E-1,9.943821716E-1,1.918244585E0
3.806128417E0,-5.505551147E-1,6.818321228E-1,9.187893677E-1,1.269716457E0
3.816168417E0,2.050735474E-2,6.957531738E-1,9.310638428E-1,1.162485660E0
3.826207417E0,3.427871704E-2,5.279521179E-1,6.036946106E-1,8.027176665E-1
3.836246417E0,-3.029699707E-1,2.427951050E-1,3.897894287E-1,5.501600357E-1
3.846286417E0,-3.965254211E-1,2.430944824E-1,4.688250732E-1,6.603970671E-1
3.856325417E0,-3.490740967E-1,2.812651062E-1,3.851490784E-1,5.910182717E-1
3.866365417E0,-6.608757019E-1,1.538800049E-1,1.586700439E-1,6.968586170E-1
3.876404417E0,-6.954537964E-1,2.471360779E-1,4.400848389E-2,7.393706584E-1
3.886443417E0,-7.090754700E-1,2.941383362E-1,-1.213975525E-1,7.772018713E-1
3.896483417E0,-8.557704163E-1,6.840774536E-2,-2.414479065E-1,8.918069951E-1
3.906522417E0,-8.002359009E-1,-7.933502197E-2,-1.073268127E-1,8.112894597E-1
3.916562417E0,-1.076710968E0,-3.228785706E-1,-3.146456909E-1,1.167287022E0
3.926601417E0,-1.546134796E0,-6.539900208E-1,-8.713380432E-1,1.891418975E0
3.936640417E0,-1.412013702E0,-6.792874146E-1,-7.458988953E-1,1.735390230E0
3.946680417E0,-1.855541382E0,-7.345225525E-1,-4.328997803E-1,2.042047849E0
3.956719417E0,-4.235741730E0,-1.253493347E0,-5.827381897E-1,4.455596186E0
3.966758417E0,-7.398065643E0,-2.369273071E0,-5.911207581E-1,7.790651699E0
3.976798417E0,-1.264046402E1,-4.325704651E0,-1.015937347E0,1.339870069E1
3.986837417E0,-2.119472534E1,-6.706803131E0,-2.680625610E0,2.239159093E1
3.996877417E0,-2.907808182E1,-8.624914398E0,-4.850363617E0,3.071563149E1
4.006916417E0,-3.392874481E1,-1.002615051E1,-6.633755035E0,3.599569592E1
4.016955417E0,-3.714660324E1,-1.238210129E1,-7.640112305E0,3.989433394E1
4.026995417E0,-3.893777847E1,-1.614752106E1,-8.358318787E0,4.297388185E1
4.037034417E0,-3.747606812E1,-1.885015091E1,-8.195158081E0,4.274277116E1
4.047074417E0,-3.142160843E1,-1.749576736E1,-6.195017395E0,3.649380211E1
4.057113417E0,-2.124621826E1,-1.299447784E1,-2.744393005E0,2.505573663E1
4.067152417E0,-1.158186539E1,-8.953780518E0,-4.141886902E-1,1.464518159E1
4.077192417E0,-6.792724457E0,-7.757468262E0,-2.007325745E-1,1.031308455E1
4.087231417E0,-7.065457306E0,-7.659871216E0,-6.837780762E-1,1.044326895E1
4.097270417E0,-9.469757538E0,-6.431375885E0,-1.659748535E0,1.156692132E1
4.107310417E0,-1.277413605E1,-4.916076965E0,-3.986659698E0,1.425622040E1
4.117349417E0,-1.573931992E1,-3.185226288E0,-6.405928802E0,1.728894970E1
4.127389417E0,-1.536060745E1,-8.710386658E-1,-7.591463470E0,1.715626088E1
4.137428417E0,-1.179532150E1,1.091230774E0,-7.951464844E0,1.426696138E1
4.147467417E0,-7.590864716E0,2.079326019E0,-7.333400116E0,1.075748953E1
4.157507417E0,-3.819008331E0,2.516267395E0,-5.889652405E0,7.456837915E0
4.167546417E0,-1.055006104E0,2.598296814E0,-4.337080994E0,5.164731915E0
4.177586417E0,5.480104065E-1,2.300865326E0,-3.053200836E0,3.862166749E0
4.187625417E0,1.514849854E0,2.253264313E0,-2.013612671E0,3.380326335E0
4.197664417E0,1.820065155E0,2.315085754E0,-1.408570862E0,3.264403635E0
4.207704417E0,1.547032928E0,2.157164154E0,-1.466201019E0,3.032558903E0
4.217743417E0,8.822653198E-1,2.165995789E0,-1.614392853E0,2.841864552E0
4.227782417E0,-8.611592102E-1,1.851200409E0,-1.700014801E0,2.656800418E0
4.237822417E0,-4.142785034E0,9.608518982E-1,-1.616039429E0,4.549449158E0
4.247861417E0,-7.169640656E0,1.279838562E-1,-1.059646454E0,7.248653503E0
4.257901417E0,-9.062155151E0,-9.205856323E-1,-6.285429382E-1,9.130454541E0
4.267940417E0,-1.089913513E1,-2.241588593E0,-5.754034424E-1,1.114212525E1
4.277979417E0,-1.280182846E1,-3.417692871E0,-9.250762939E-1,1.328243963E1
4.288019417E0,-1.418480255E1,-3.957320709E0,-1.566492462E0,1.480955466E1
4.298058417E0,-1.491154129E1,-4.127367096E0,-2.139051819E0,1.561937148E1
4.308098417E0,-1.535207520E1,-4.256698151E0,-2.608475647E0,1.614341467E1
4.318137417E0,-1.530627045E1,-4.222419434E0,-2.775079193E0,1.611867877E1
4.328176417E0,-1.471859253E1,-3.992347870E0,-2.678230591E0,1.548382145E1
4.338216417E0,-1.368798569E1,-3.671115875E0,-2.450703735E0,1.438207192E1
4.348255417E0,-1.252340744E1,-3.222199402E0,-1.845512238E0,1.306232056E1
4.358294417E0,-1.156165741E1,-2.700384521E0,-1.185384979E0,1.193185384E1
4.368334417E0,-1.094119766E1,-2.198029175E0,-8.690927124E-1,1.119359016E1
4.378373417E0,-9.742789764E0,-1.780697021E0,-6.858737183E-1,9.927902952E0
4.388413417E0,-8.031248932E0,-1.386117554E0,-5.698649597E-1,8.169885394E0
4.398452417E0,-6.395600281E0,-1.058598633E0,-5.459147644E-1,6.505563538E0
4.408491417E0,-5.561534729E0,-8.370593262E-1,-6.768923950E-1,5.664761263E0
4.418531417E0,-5.445376282E0,-6.664141846E-1,-1.137933655E0,5.602778214E0
4.428570417E0,-5.631439362E0,-3.070115662E-1,-1.672621765E0,5.882603926E0
4.438610417E0,-6.214925995E0,-4.116439819E-2,-1.863774261E0,6.488501686E0
4.448649417E0,-7.338040466E0,-4.700225830E-2,-2.010169830E0,7.608536643E0
4.458688417E0,-7.863896942E0,6.271957397E-2,-1.914668427E0,8.093872006E0
4.468728417E0,-7.510182495E0,2.776725769E-1,-1.675615540E0,7.699846142E0
4.478767417E0,-6.808441772E0,4.068539429E-1,-1.303639069E0,6.944053882E0
4.488807417E0,-6.356980591E0,3.375480652E-1,-8.731343079E-1,6.425535343E0
4.498846417E0,-6.073470154E0,2.567161560E-1,-4.492158508E-1,6.095468626E0
4.508885417E0,-5.985902252E0,3.936813354E-2,-1.266366577E-1,5.987371081E0
4.518925417E0,-5.958808594E0,-3.878434753E-1,-1.056802368E-1,5.972352194E0
4.528964417E0,-5.779780884E0,-5.352868652E-1,-5.643264771E-2,5.804789724E0
4.539003417E0,-6.043083344E0,-7.638615417E-1,3.712280273E-2,6.091282201E0
4.549043417E0,-6.793772278E0,-1.341210938E0,-1.537303162E-1,6.926602454E0
4.559082417E0,-7.685617676E0,-1.682501221E0,-5.755531311E-1,7.888649493E0
4.569122417E0,-8.736282806E0,-1.906136169E0,-1.132844238E0,9.013286217E0
4.579161417E0,-1.049332901E1,-2.502046967E0,-1.817520447E0,1.093954173E1
4.589200417E0,-1.222253311E1,-2.977907410E0,-2.148781586E0,1.276226902E1
4.599240417E0,-1.455183929E1,-3.627257080E0,-2.467768250E0,1.519877959E1
4.609279417E0,-1.910731613E1,-4.849315796E0,-3.319796448E0,1.999065887E1
4.619319417E0,-2.332374802E1,-6.347250824E0,-4.326153717E0,2.455606688E1
4.629358417E0,-2.573673019E1,-7.701484680E0,-5.345234528E0,2.739094156E1
4.639397417E0,-2.733196289E1,-8.947792969E0,-5.805527344E0,2.933945027E1
4.649437417E0,-2.895054703E1,-1.026056305E1,-5.472320251E0,3.119871177E1
4.659476417E0,-3.063080292E1,-1.170969955E1,-5.091063080E0,3.318557027E1
4.669515417E0,-3.197635483E1,-1.315674042E1,-5.125790863E0,3.495512578E1
4.679555417E0,-3.269381287E1,-1.416938461E1,-5.263354797E0,3.601888066E1
4.689594417E0,-3.113824768E1,-1.403930511E1,-4.947511597E0,3.451333695E1
4.699634417E0,-2.629761383E1,-1.187016586E1,-4.399201813E0,2.918592653E1
4.709673417E0,-1.995679962E1,-8.204887848E0,-3.799848175E0,2.190965271E1
4.719712417E0,-1.333846252E1,-4.784051514E0,-2.972518616E0,1.447886730E1
4.729752417E0,-7.735314331E0,-2.249971161E0,-2.719245300E0,8.502455706E0
4.739791417E0,-2.859054565E0,-1.489402771E-1,-2.598446503E0,3.866303201E0
4.749831417E0,1.425485687E0,1.601070557E0,-2.079026642E0,2.986266590E0
4.759870417E0,4.241878967E0,2.528990936E0,-1.643432465E0,5.204824934E0
4.769909417E0,5.444927216E0,2.328557739E0,-1.124461670E0,6.027754771E0
4.779949417E0,5.437293091E0,1.730850677E0,-3.528163147E-1,5.717034159E0
4.789988417E0,4.435276794E0,1.055754547E0,2.125579834E-2,4.559248810E0
4.800027417E0,3.169209595E0,1.685494995E-1,-2.613565063E-1,3.184431757E0
4.810067417E0,1.807042236E0,-4.538562012E-1,-5.876779175E-1,1.953651051E0
4.820106417E0,1.877096558E-1,-7.176077271E-1,-9.027726746E-1,1.168415280E0
4.830146417E0,-1.386267242E0,-8.219407654E-1,-1.334924011E0,2.092688607E0
4.840185417E0,-2.232158203E0,-5.926176453E-1,-1.521436157E0,2.765591058E0
4.850224417E0,-2.300116882E0,-2.004331970E-1,-1.425934753E0,2.713669298E0
4.860264417E0,-1.949845276E0,1.281335449E-1,-1.396745453E0,2.401918538E0
4.870303417E0,-1.449286194E0,3.972738647E-1,-1.545536041E0,2.155675915E0
4.880343417E0,-9.003776550E-1,5.941145325E-1,-1.658700714E0,1.978620746E0
4.890382417E0,-5.978567505E-1,6.418652344E-1,-1.729353790E0,1.939094687E0
4.900421417E0,-5.590873718E-1,4.390370178E-1,-1.814227295E0,1.948525820E0
4.910461417E0,-5.257067871E-1,1.218466187E-1,-1.525028687E0,1.617691787E0
4.920500417E0,-3.582051086E-1,-7.155120850E-2,-8.985813904E-1,9.699891703E-1
4.930539417E0,4.490661621E-3,-2.118095398E-1,-2.269281006E-1,3.104509785E-1
4.940579417E0,2.604583740E-1,-3.019221497E-1,2.517764282E-1,4.715791756E-1
4.950618417E0,-1.504371643E-1,-4.210743713E-1,4.317022705E-1,6.215318310E-1
4.960658417E0,-6.454577637E-1,-4.068539429E-1,5.806425476E-1,9.587969668E-1
4.970697417E0,-5.670208740E-1,-2.270777893E-1,8.409512329E-1,1.039363252E0
4.980736417E0,-3.628454590E-1,-5.897735596E-2,9.346563721E-1,1.004349386E0
4.990776417E0,-3.969744873E-1,3.622467041E-2,8.774752808E-1,9.637758239E-1
5.000815417E0,-5.716612244E-1,1.061293030E-1,7.912545776E-1,9.819082396E-1
5.010855417E0,-7.262896729E-1,7.738906860E-2,5.924679565E-1,9.404807475E-1
5.020894542E0,-7.375163269E-1,4.909790039E-2,4.956193542E-1,8.899322899E-1
5.030933542E0,-7.086264038E-1,2.350112915E-2,4.818479919E-1,8.572521045E-1
5.040973542E0,-9.821076965E-1,-2.142045593E-1,2.451901245E-1,1.034667733E0
5.051012542E0,-1.504671021E0,-6.566844177E-1,-3.113525391E-2,1.642022749E0
5.061051542E0,-2.136656799E0,-9.066645813E-1,-1.348695374E-1,2.324980158E0
5.071091542E0,-3.006048889E0,-1.316063232E0,-3.715274048E-1,3.302481638E0
5.081130542E0,-4.925058289E0,-2.346221008E0,-7.198530579E-1,5.502648507E0
5.091170542E0,-8.003107452E0,-3.935316467E0,-1.065484314E0,8.981742671E0
5.101209542E0,-1.252520370E1,-5.759722595E0,-2.005679169E0,1.393118377E1
5.111248542E0,-1.810784454E1,-7.770191803E0,-3.053649902E0,1.993977664E1
5.121288542E0,-2.337209747E1,-9.807155914E0,-3.729644165E0,2.561924068E1
5.131327542E0,-2.852767639E1,-1.148741180E1,-4.701423340E0,3.111096803E1
5.141367542E0,-3.286640396E1,-1.315883606E1,-5.830824738E0,3.587971562E1
5.151406542E0,-3.584326355E1,-1.523322235E1,-6.411766663E0,3.947025914E1
5.161445542E0,-3.744777695E1,-1.687126602E1,-6.640940094E0,4.160622190E1
5.171485542E0,-3.574776215E1,-1.648447037E1,-6.656956787E0,3.992437019E1
5.181524542E0,-3.013308792E1,-1.327394669E1,-5.391039276E0,3.336561033E1
5.191563542E0,-2.204286163E1,-8.607550507E0,-4.126169586E0,2.402088571E1
5.201603542E0,-1.424392960E1,-4.173171844E0,-3.107238464E0,1.516442628E1
5.211642542E0,-8.556656342E0,-1.436562653E0,-2.259850616E0,8.965880035E0
5.221682542E0,-6.208190002E0,-1.034498749E0,-1.966909790E0,6.593977926E0
5.231721542E0,-6.161936188E0,-1.497485962E0,-2.534529419E0,6.829038085E0
5.241760542E0,-6.511159973E0,-1.118923187E0,-3.228186951E0,7.353120717E0
5.251800542E0,-6.859934692E0,-1.059796143E-1,-4.102818146E0,7.993938479E0
5.261839542E0,-6.783593445E0,7.433541870E-1,-5.121000824E0,8.531961375E0
5.271879542E0,-6.215973816E0,1.715732117E0,-5.646857300E0,8.571409717E0
5.281918542E0,-5.361251221E0,2.750679932E0,-5.710924072E0,8.302042429E0
5.291957542E0,-4.647385712E0,3.346890106E0,-5.558990021E0,7.981368140E0
5.301997542E0,-3.993246002E0,3.197051697E0,-5.074447632E0,7.205357170E0
5.312036542E0,-3.299438782E0,2.892435150E0,-4.329147491E0,6.163926944E0
5.322075542E0,-2.753074951E0,2.746937714E0,-3.485202484E0,5.222233703E0
5.332115542E0,-2.553689575E0,2.550546112E0,-2.468666382E0,4.372748520E0
5.342154542E0,-2.779120789E0,2.365680542E0,-1.363664246E0,3.896092524E0
5.352194542E0,-3.500021667E0,1.950144653E0,-2.776725769E-1,4.016256703E0
5.362233542E0,-4.764442291E0,1.396895142E0,6.716532898E-1,5.010223999E0
5.372272542E0,-5.985153809E0,7.860154724E-1,1.218765564E0,6.158350098E0
5.382312542E0,-7.182663574E0,-4.625381470E-2,1.401984558E0,7.318357475E0
5.392351542E0,-8.079299011E0,-1.001567230E0,1.570384369E0,8.291219241E0
5.402391542E0,-8.904682617E0,-1.825603638E0,1.786983948E0,9.263882166E0
5.412430542E0,-9.696685638E0,-2.512674866E0,1.424288177E0,1.011769955E1
5.422469542E0,-1.032343231E1,-3.100352783E0,5.661227417E-1,1.079379160E1
5.432509542E0,-1.122006775E1,-3.584446106E0,-3.424877930E-1,1.178369518E1
5.442548542E0,-1.262489639E1,-4.343816986E0,-1.101559296E0,1.339664838E1
5.452587542E0,-1.409603714E1,-5.197042694E0,-1.686243439E0,1.511790107E1
5.462627542E0,-1.586236404E1,-5.901627502E0,-2.220183105E0,1.706965182E1
5.472666542E0,-1.801473816E1,-6.343059540E0,-2.874472504E0,1.931392729E1
5.482706542E0,-1.913949921E1,-6.369105377E0,-3.506458282E0,2.047391469E1
5.492745542E0,-1.848985016E1,-5.748645630E0,-3.800147552E0,1.973227323E1
5.502784542E0,-1.622056915E1,-4.364773407E0,-3.710933075E0,1.720259093E1
5.512824542E0,-1.322933945E1,-2.939437408E0,-3.509452057E0,1.399899883E1
5.522863542E0,-1.039603134E1,-1.786983948E0,-3.280578003E0,1.104685346E1
5.532903542E0,-8.169411621E0,-9.023236084E-1,-2.908002777E0,8.718368786E0
5.542942542E0,-6.511758728E0,-4.593946838E-1,-2.567161560E0,7.014582217E0
5.552981542E0,-5.514831848E0,-1.547781372E-1,-2.096240845E0,5.901826180E0
5.563021542E0,-5.128036194E0,5.703140259E-2,-1.479074249E0,5.337384043E0
5.573060542E0,-5.174290009E0,4.790039063E-2,-8.949888611E-1,5.251340458E0
5.583099542E0,-5.535638580E0,-1.154100037E-1,-4.484674072E-1,5.554974075E0
5.593139542E0,-6.096522217E0,-3.097059631E-1,-7.364685059E-2,6.104827990E0
5.603178542E0,-6.515351257E0,-4.920268250E-1,9.370513916E-2,6.534575201E0
5.613218542E0,-6.523584137E0,-5.592370605E-1,1.188528442E-1,6.548589320E0
5.623257542E0,-6.500831451E0,-6.029461670E-1,-7.649093628E-2,6.529180998E0
5.633296542E0,-6.096073151E0,-6.682104492E-1,-3.344046021E-1,6.141696793E0
5.643336542E0,-5.439688110E0,-6.656657410E-1,-4.972659302E-1,5.502780299E0
5.653375542E0,-4.745132446E0,-6.843768311E-1,-5.596861267E-1,4.826790045E0
5.663415542E0,-4.150419159E0,-5.885760498E-1,-6.227050781E-1,4.237943201E0
5.673454542E0,-3.809727631E0,-4.583468628E-1,-6.207591248E-1,3.887087387E0
5.683493542E0,-3.733386383E0,-3.751199341E-1,-5.281018066E-1,3.789166184E0
5.693533542E0,-3.893104248E0,-3.083587646E-1,-4.445755005E-1,3.930520728E0
5.703572542E0,-4.033661957E0,-4.067042542E-1,-4.087998962E-1,4.074672317E0
5.713611542E0,-4.351301422E0,-6.619235229E-1,-5.227130127E-1,4.432290120E0
5.723651542E0,-4.923860779E0,-1.091979218E0,-8.884025574E-1,5.121140760E0
5.733690542E0,-5.364993439E0,-1.532064056E0,-1.185534668E0,5.704022030E0
5.743730542E0,-5.782475281E0,-1.763333130E0,-1.474134521E0,6.222494410E0
5.753769542E0,-7.065606995E0,-1.995051270E0,-2.278112640E0,7.687186024E0
5.763808542E0,-8.630901947E0,-2.188449097E0,-3.186124420E0,9.456911054E0
5.773848542E0,-1.062011536E1,-2.555934906E0,-3.840862885E0,1.157894128E1
5.783887542E0,-1.340926529E1,-3.475323029E0,-4.765190735E0,1.464900367E1
5.793927542E0,-1.638103546E1,-4.852309570E0,-5.631589050E0,1.798883060E1
5.803966542E0,-1.991488678E1,-6.629863129E0,-5.988446960E0,2.182703135E1
5.814005542E0,-2.437231750E1,-8.635841675E0,-6.226901093E0,2.659627642E1
5.824045542E0,-2.794868042E1,-1.053090088E1,-6.207441559E0,3.050509697E1
5.834084542E0,-3.064217926E1,-1.218585938E1,-6.069428558E0,3.353022937E1
5.844123542E0,-3.283781342E1,-1.352497467E1,-6.327791290E0,3.607336791E1
5.854163542E0,-3.412483704E1,-1.445364349E1,-6.715185699E0,3.766305925E1
5.864202542E0,-3.426075439E1,-1.468985229E1,-6.970255280E0,3.792328455E1
5.874242542E0,-3.261073563E1,-1.371897125E1,-7.104526062E0,3.608523993E1
5.884281542E0,-2.925351700E1,-1.188019501E1,-6.535409546E0,3.224312125E1
5.894320542E0,-2.460343689E1,-9.656718750E0,-5.539081421E0,2.700486524E1
5.904360542E0,-1.924323349E1,-7.203320618E0,-3.995491333E0,2.093212397E1
5.914399542E0,-1.410172531E1,-4.629572754E0,-1.968855743E0,1.497224077E1
5.924438542E0,-9.628876648E0,-2.173929291E0,-3.882925415E-1,9.878866593E0
5.934478542E0,-6.608757019E0,-5.284011841E-2,3.829037476E-1,6.620051110E0
5.944517542E0,-4.193978577E0,1.742526398E0,7.857160950E-1,4.609035076E0
5.954557542E0,-1.992656250E0,3.221600647E0,1.234183502E0,3.984042994E0
5.964596542E0,-1.682501221E-1,4.308340759E0,1.571282501E0,4.589012628E0
5.974635542E0,8.083190918E-1,4.692442017E0,1.597178650E0,5.022287474E0
5.984675542E0,8.476872253E-1,4.212090912E0,1.320404205E0,4.494858257E0
5.994714542E0,5.995033264E-1,3.440295868E0,1.184786224E0,3.687649427E0
6.004754542E0,5.813909912E-1,2.907404022E0,1.382974091E0,3.271640409E0
6.014793208E0,7.497908020E-1,2.398911438E0,1.493594055E0,2.923659614E0
6.024832208E0,7.298822021E-1,1.796713715E0,1.425635376E0,2.406936731E0
6.034872208E0,3.156935120E-1,1.225351868E0,1.081201630E0,1.664375726E0
6.044911208E0,1.061293030E-1,8.060737610E-1,6.559359741E-1,1.044638856E0
6.054951208E0,3.823049927E-1,4.845423889E-1,2.579136658E-1,6.689229351E-1
6.064990208E0,7.123686218E-1,3.764671326E-1,-2.707868958E-1,8.500129988E-1
6.075029208E0,7.767347717E-1,4.622387695E-1,-7.848179626E-1,1.197046708E0
6.085069208E0,6.206094360E-1,4.631369019E-1,-1.177002411E0,1.408895503E0
6.095108208E0,2.297721863E-1,3.329077148E-1,-1.491947479E0,1.545810495E0
6.105147208E0,-2.880010986E-1,1.176553345E-1,-1.609303436E0,1.639098826E0
6.115187208E0,-6.578819275E-1,7.035369873E-3,-1.344354401E0,1.496712024E0
6.125226208E0,-8.659492493E-1,6.750961304E-2,-9.366023254E-1,1.277360390E0
6.135266208E0,-9.684860229E-1,7.873626709E-2,-6.086343384E-1,1.146560218E0
6.145305208E0,-1.088237000E0,9.774673462E-2,-3.417393494E-1,1.144814384E0
6.155344208E0,-1.194066925E0,2.414479065E-1,5.987548828E-4,1.218233669E0
6.165384208E0,-1.395997009E0,3.927832031E-1,3.125500488E-1,1.483500532E0
6.175423208E0,-1.917362823E0,5.554948425E-1,4.150868225E-1,2.038909460E0
6.185463208E0,-2.272723846E0,7.473957825E-1,4.986131287E-1,2.443867670E0
6.195502208E0,-2.347119141E0,8.785231018E-1,6.066883850E-1,2.578534835E0
6.205541208E0,-2.167492676E0,9.831555176E-1,6.355783081E-1,2.463448611E0
6.215581208E0,-1.994302826E0,9.572593689E-1,5.462141418E-1,2.278582706E0
6.225620208E0,-1.970951385E0,8.804690552E-1,3.620970154E-1,2.188832878E0
6.235659208E0,-1.953437805E0,8.208929443E-1,1.871109009E-1,2.127156547E0
6.245699208E0,-2.126627655E0,6.227050781E-1,-7.484436035E-4,2.215921334E0
6.255738208E0,-2.353555756E0,5.867797852E-2,-4.155358887E-1,2.390677284E0
6.265778208E0,-2.609074402E0,-4.028123474E-1,-6.899153137E-1,2.728646214E0
6.275817208E0,-3.433410187E0,-5.810916138E-1,-7.348219299E-1,3.558923467E0
6.285856208E0,-4.734504547E0,-9.851014709E-1,-6.346801758E-1,4.877374000E0
6.295896208E0,-6.389912109E0,-1.572330322E0,-5.358856201E-1,6.602300569E0
6.305935208E0,-9.390272827E0,-2.636018372E0,-7.122189331E-1,9.779216351E0
6.315974208E0,-1.352123245E1,-4.608915710E0,-1.308578796E0,1.434497158E1
6.326014208E0,-1.742990433E1,-6.984924774E0,-1.936972046E0,1.887703895E1
6.336053208E0,-2.041394897E1,-9.127569122E0,-2.346370697E0,2.248437872E1
6.346093208E0,-2.344409775E1,-1.189411606E1,-2.473306732E0,2.640479052E1
6.356132208E0,-2.737552231E1,-1.598750381E1,-2.601589966E0,3.180861157E1
6.366171208E0,-3.037603271E1,-1.936552917E1,-3.069965973E0,3.615455400E1
6.376211208E0,-3.070055786E1,-2.017474640E1,-3.937561798E0,3.694657005E1
6.386250208E0,-2.786350754E1,-1.780637146E1,-3.879033508E0,3.329397570E1
6.396290208E0,-2.298320618E1,-1.341345657E1,-3.047512665E0,2.678499425E1
6.406329208E0,-1.798854263E1,-9.367071075E0,-2.343526611E0,2.041621423E1
6.416368208E0,-1.411714325E1,-6.465055847E0,-1.368603973E0,1.558729475E1
6.426408208E0,-1.243763580E1,-4.996459808E0,-6.475534058E-1,1.341934128E1
6.436447208E0,-1.263432678E1,-4.947361908E0,-4.547543335E-1,1.357605998E1
6.446486208E0,-1.331421295E1,-5.248086548E0,-6.677613831E-1,1.432677857E1
6.456526208E0,-1.320583832E1,-4.640500031E0,-9.377998352E-1,1.402882300E1
6.466565208E0,-1.202299805E1,-2.960094452E0,-1.112935638E0,1.243194542E1
6.476605208E0,-1.037941589E1,-9.731263733E-1,-1.399888916E0,1.051850456E1
6.486644208E0,-9.040899353E0,8.153544617E-1,-2.031874695E0,9.302213650E0
6.496683208E0,-7.611372070E0,2.253414001E0,-2.836152191E0,8.429390174E0
6.506723208E0,-6.110892334E0,3.070415039E0,-3.563789062E0,7.711747280E0
6.516762208E0,-5.159171448E0,3.173400879E0,-3.845054169E0,7.174396471E0
6.526802208E0,-4.670587463E0,2.680176544E0,-3.387904816E0,6.362046259E0
6.536841208E0,-4.235292664E0,1.936522980E0,-2.392325134E0,5.235555820E0
6.546880208E0,-3.770509186E0,1.299747162E0,-1.352886658E0,4.211458716E0
6.556920208E0,-3.476819916E0,9.135502625E-1,-5.845344543E-1,3.642050430E0
6.566959208E0,-3.335513763E0,5.821394348E-1,-7.289840698E-2,3.386717078E0
6.576998208E0,-3.561094666E0,1.297801208E-1,2.794688416E-1,3.574400779E0
6.587038208E0,-4.684957581E0,-5.200186157E-1,2.954855347E-1,4.722981960E0
6.597077208E0,-6.533613281E0,-1.409918060E0,2.911445618E-1,6.690346523E0
6.607117208E0,-8.321495361E0,-2.631228333E0,5.764512634E-1,8.746596118E0
6.617156208E0,-1.015458344E1,-3.769910431E0,1.422491913E0,1.092480081E1
6.627195208E0,-1.166314636E1,-4.514611816E0,2.508782959E0,1.275557505E1
6.637235208E0,-1.281814453E1,-4.747976532E0,3.213068390E0,1.404179187E1
6.647274208E0,-1.391356659E1,-4.493356018E0,3.202290802E0,1.496770690E1
6.657313208E0,-1.474074646E1,-3.758683777E0,2.365081787E0,1.539515904E1
6.667353208E0,-1.521376282E1,-2.648891602E0,8.887019348E-1,1.546819307E1
6.677392208E0,-1.537737259E1,-1.589394836E0,-6.707551575E-1,1.547383844E1
6.687432208E0,-1.505718842E1,-7.866142273E-1,-1.821262665E0,1.518731980E1
6.697471208E0,-1.435410049E1,-2.249821472E-1,-2.378254395E0,1.455152610E1
6.707510208E0,-1.344743591E1,6.735992432E-2,-2.479294281E0,1.367424477E1
6.717550208E0,-1.235725296E1,1.610650635E-1,-2.251168671E0,1.256166402E1
6.727589208E0,-1.110585526E1,1.889071655E-1,-1.509610748E0,1.120957767E1
6.737629208E0,-1.013108231E1,1.136137390E-1,-5.577401733E-1,1.014705922E1
6.747668208E0,-9.480086060E0,-1.701960754E-1,2.201921082E-1,9.484170125E0
6.757707208E0,-9.059460754E0,-4.314028931E-1,7.234455872E-1,9.098533461E0
6.767747208E0,-8.739126892E0,-5.477110291E-1,9.382489014E-1,8.806397516E0
6.777786208E0,-8.310867462E0,-6.005511475E-1,9.309141541E-1,8.384377187E0
6.787825208E0,-8.205037537E0,-6.897656250E-1,8.449928284E-1,8.277223597E0
6.797865208E0,-8.275091858E0,-6.894662476E-1,6.183641052E-1,8.326757060E0
6.807904208E0,-7.926915894E0,-5.406756592E-1,5.016069031E-1,7.961151628E0
6.817944208E0,-7.383096771E0,-4.096980286E-1,3.595523071E-1,7.403191762E0
6.827983208E0,-6.738537140E0,-3.376977539E-1,2.112107849E-1,6.750298701E0
6.838022208E0,-6.163283386E0,-3.582051086E-1,2.004331970E-1,6.176936657E0
6.848062208E0,-5.816903687E0,-4.875361633E-1,2.350112915E-1,5.842027928E0
6.858101208E0,-5.593268738E0,-6.616241455E-1,1.169068909E-1,5.633477514E0
6.868141208E0,-5.357359314E0,-7.605683899E-1,-1.402583313E-1,5.412895297E0
6.878180208E0,-5.184319153E0,-8.403524780E-1,-3.620970154E-1,5.264453591E0
6.888219208E0,-5.296436005E0,-9.285191345E-1,-6.255491638E-1,5.413473367E0
6.898259208E0,-5.303621063E0,-9.148974609E-1,-8.123606873E-1,5.442918669E0
6.908298208E0,-5.385051727E0,-9.092092896E-1,-8.803193665E-1,5.531763356E0
6.918337208E0,-5.655838623E0,-1.026265869E0,-1.164578247E0,5.864978658E0
6.928377208E0,-5.880521393E0,-1.187480621E0,-1.544338531E0,6.194806178E0
6.938416208E0,-6.399791565E0,-1.366358643E0,-1.533560944E0,6.721315138E0
6.948456208E0,-7.524103546E0,-1.881736908E0,-1.266216888E0,7.858522328E0
6.958495208E0,-9.414821777E0,-2.946921844E0,-1.036893768E0,9.919595059E0
6.968534208E0,-1.150552414E1,-3.978127441E0,-7.057823181E-1,1.219429015E1
6.978574208E0,-1.465901642E1,-5.318739624E0,-9.024732971E-1,1.562018603E1
6.988613208E0,-1.835977066E1,-7.237898712E0,-1.522783356E0,1.979361578E1
6.998653208E0,-2.127825165E1,-9.388626251E0,-1.874701538E0,2.333291242E1
7.008692208E0,-2.417727310E1,-1.151046387E1,-2.133064270E0,2.686226491E1
7.018730667E0,-2.683948700E1,-1.355640930E1,-2.434387665E0,3.016720966E1
7.028770667E0,-2.916639816E1,-1.541868668E1,-3.000809784E0,3.312732316E1
7.038809667E0,-3.123479691E1,-1.700957840E1,-4.012855225E0,3.579163732E1
7.048848667E0,-3.234803192E1,-1.786190598E1,-5.132526855E0,3.730664400E1
7.058888667E0,-3.192875381E1,-1.726509705E1,-5.618266754E0,3.673001249E1
7.068927667E0,-3.026496368E1,-1.532348465E1,-5.294190674E0,3.433373943E1
7.078967667E0,-2.765918243E1,-1.261771133E1,-4.773573303E0,3.077375528E1
7.089006667E0,-2.280582504E1,-9.363478546E0,-3.464994507E0,2.489551312E1
7.099045667E0,-1.667397629E1,-5.895789642E0,-1.836231537E0,1.778070772E1
7.109085667E0,-1.114417557E1,-3.154240723E0,-4.041595459E-1,1.158901327E1
7.119124667E0,-7.011719055E0,-1.019230499E0,9.916877747E-1,7.154472696E0
7.129163667E0,-4.449796600E0,5.893244934E-1,2.025737457E0,4.924591901E0
7.139203667E0,-2.513423309E0,1.902693329E0,2.604284363E0,4.088989567E0
7.149242667E0,-5.249583435E-1,3.421734467E0,3.209924927E0,4.720960290E0
7.159282667E0,3.832031250E-1,3.948189697E0,3.222349091E0,5.110634029E0
7.169321667E0,1.413061523E-1,3.451821899E0,2.355052643E0,4.181066228E0
7.179360667E0,-4.131408691E-2,2.980452118E0,1.322050781E0,3.260769840E0
7.189400667E0,-7.334747314E-2,2.416874084E0,1.127156067E-1,2.420612526E0
7.199439667E0,4.537065125E-1,1.621278534E0,-1.394051056E0,2.185811527E0
7.209479667E0,1.176852722E0,1.221010895E0,-2.774330750E0,3.251578239E0
7.219518667E0,1.599274292E0,1.013542328E0,-3.754043427E0,4.204496208E0
7.229557667E0,1.679058380E0,6.620732117E-1,-4.523144073E0,4.869949722E0
7.239597667E0,1.861678619E0,6.975494385E-1,-4.788542175E0,5.184839310E0
7.249636667E0,1.502425690E0,5.766009521E-1,-4.678970032E0,4.947980615E0
7.259675667E0,5.279521179E-1,2.909948730E-1,-4.166884918E0,4.210266188E0
7.269715667E0,-1.131646729E-1,4.252656555E-1,-3.425925751E0,3.454073591E0
7.279754667E0,-6.203100586E-1,1.859133911E-1,-2.697540436E0,2.774179655E0
7.289794667E0,-1.286424866E0,2.918930054E-2,-1.691632233E0,2.125408328E0
7.299833667E0,-1.382375336E0,7.649093628E-2,-8.087681580E-1,1.603408359E0
7.309872667E0,-1.048868866E0,1.207987976E-1,-1.531315613E-1,1.066849344E0
7.319912667E0,-1.048419800E0,5.673202515E-2,3.537144470E-1,1.107933441E0
7.329951667E0,-8.933422852E-1,1.291813660E-1,5.426216125E-1,1.053179224E0
7.339990667E0,-5.059478760E-1,2.757266235E-1,4.239184570E-1,7.153427726E-1
7.350030667E0,-3.436853027E-1,2.272274780E-1,1.643582153E-1,4.435826158E-1
7.360069667E0,-4.864883423E-1,5.595364380E-1,3.233276367E-2,7.421572207E-1
7.370109667E0,-7.626640320E-1,8.472381592E-1,-1.505868530E-1,1.149845783E0
7.380148667E0,-1.203647003E0,8.699908447E-1,-2.760260010E-1,1.510576225E0
7.390187667E0,-2.103874969E0,9.325607300E-1,-2.204914856E-1,2.311833882E0
7.400227667E0,-2.526446228E0,1.155746613E0,-1.203497314E-1,2.780856852E0
7.410266667E0,-2.374961243E0,1.218765564E0,-4.700225830E-2,2.669838875E0
7.420306667E0,-1.997745667E0,1.111588440E0,2.023791504E-1,2.295119589E0
7.430345667E0,-1.581461334E0,9.616003418E-1,3.146456909E-1,1.877417663E0
7.440384667E0,-1.239422607E0,7.828720093E-1,3.592529297E-2,1.466406359E0
7.450424667E0,-1.010548553E0,5.718109131E-1,-4.465214539E-1,1.244008645E0
7.460463667E0,-1.150956573E0,2.254312134E-1,-8.948391724E-1,1.475214361E0
7.470502667E0,-1.754351807E0,-1.389111328E-1,-1.217717743E0,2.140066136E0
7.480542667E0,-2.866688690E0,-5.822891235E-1,-1.347647552E0,3.220732618E0
7.490581667E0,-4.800966339E0,-1.205293579E0,-1.306483154E0,5.119463706E0
7.500621667E0,-8.174950104E0,-2.131866760E0,-1.229692841E0,8.537377206E0
7.510660667E0,-1.239452545E1,-3.644620972E0,-1.345102844E0,1.298910408E1
7.520699667E0,-1.597193619E1,-5.449567566E0,-1.475481720E0,1.694041258E1
7.530739667E0,-1.884850433E1,-7.069947968E0,-1.469194794E0,2.018437052E1
7.540778667E0,-2.135249725E1,-8.420738983E0,-1.393601990E0,2.299521930E1
7.550818667E0,-2.516162613E1,-1.067220703E1,-1.724563751E0,2.738571804E1
7.560857667E0,-3.083602615E1,-1.477786926E1,-2.153721313E0,3.426199709E1
7.570896667E0,-3.626149384E1,-1.847398315E1,-2.848576355E0,4.079581322E1
7.580936667E0,-3.872477142E1,-1.931194061E1,-4.042493591E0,4.346148555E1
7.590975667E0,-3.605971344E1,-1.643222900E1,-4.205953674E0,3.984985734E1
7.601014667E0,-2.918930054E1,-1.112142288E1,-3.560346222E0,3.143846971E1
7.611054667E0,-2.125011017E1,-6.884483643E0,-3.310964813E0,2.258153638E1
7.621093667E0,-1.537183411E1,-5.011129303E0,-3.258573761E0,1.649311989E1
7.631133667E0,-1.235830078E1,-4.460125122E0,-2.983445892E0,1.347298273E1
7.641172667E0,-1.102262833E1,-4.132606201E0,-2.450404358E0,1.202419439E1
7.651211667E0,-1.044602737E1,-3.350782013E0,-2.285896454E0,1.120591588E1
7.661251667E0,-9.716893616E0,-2.074835358E0,-2.338736572E0,1.020748020E1
7.671290667E0,-8.353229370E0,-7.500901794E-1,-2.431543579E0,8.732209363E0
7.681329667E0,-6.886878662E0,3.269201660E-1,-2.534080353E0,7.345579469E0
7.691369667E0,-5.443580017E0,1.180594940E0,-2.245480499E0,6.005709824E0
7.701408667E0,-4.725373535E0,1.555265808E0,-1.624272308E0,5.233189019E0
7.711448667E0,-4.949008484E0,1.547781372E0,-8.523275757E-1,5.254976160E0
7.721487667E0,-4.893473969E0,1.556463318E0,-1.046324158E-1,5.136108788E0
7.731526667E0,-4.458478546E0,1.687291260E0,3.442840576E-1,4.779488911E0
7.741566667E0,-3.509002991E0,1.710043945E0,7.207511902E-1,3.969487947E0
7.751605667E0,-2.478994904E0,1.504970398E0,8.367599487E-1,3.018363603E0
7.761644667E0,-1.573078766E0,1.259630585E0,8.773255920E-1,2.197941357E0
7.771684667E0,-1.226250000E0,9.785151672E-1,7.957452393E-1,1.759088253E0
7.781723667E0,-1.613045654E0,4.002676392E-1,6.180647278E-1,1.773170740E0
7.791763667E0,-2.797233124E0,-4.209246826E-1,5.125341797E-1,2.874783822E0
7.801802667E0,-3.773053894E0,-1.150357819E0,5.195695496E-1,3.978594138E0
7.811841667E0,-4.803810425E0,-1.711540833E0,4.709207153E-1,5.121301879E0
7.821881667E0,-6.469097443E0,-2.554138641E0,4.343966675E-1,6.968611511E0
7.831920667E0,-8.878786469E0,-3.877386932E0,5.101391602E-1,9.701918395E0
7.841960667E0,-1.130269592E1,-5.269941101E0,4.204756165E-1,1.247798117E1
7.851999667E0,-1.380324600E1,-6.171067200E0,7.095245361E-2,1.512007622E1
7.862038667E0,-1.573333237E1,-6.288872223E0,-4.784051514E-1,1.695041394E1
7.872078667E0,-1.640109375E1,-5.531447296E0,-1.308728485E0,1.735815531E1
7.882117667E0,-1.615889740E1,-4.270319824E0,-2.340083771E0,1.687665810E1
7.892156667E0,-1.514445694E1,-3.129542084E0,-3.361260223E0,1.582550726E1
7.902196667E0,-1.382674713E1,-2.110161896E0,-4.041296082E0,1.455897639E1
7.912235667E0,-1.252355713E1,-1.256936188E0,-4.142785034E0,1.325073732E1
7.922275667E0,-1.148905838E1,-8.849597168E-1,-3.557352448E0,1.205970035E1
7.932314667E0,-1.077085190E1,-9.454339600E-1,-2.422412567E0,1.108030589E1
7.942353667E0,-1.000294876E1,-1.144070892E0,-9.922865295E-1,1.011694196E1
7.952393667E0,-9.076974335E0,-1.242266693E0,9.879455566E-2,9.162120386E0
7.962432667E0,-8.191715240E0,-1.265767822E0,8.253836060E-1,8.329923461E0
7.972472667E0,-7.646249542E0,-1.323248291E0,1.291065216E0,7.866572792E0
7.982511667E0,-7.663463745E0,-1.434167633E0,1.536704407E0,7.946507019E0
7.992550667E0,-7.977211304E0,-1.621428223E0,1.566941528E0,8.289766910E0
8.002590667E0,-8.138725433E0,-1.682501221E0,1.501527557E0,8.445368378E0
8.012629667E0,-7.975415039E0,-1.628613281E0,1.294208679E0,8.242244984E0
8.022669292E0,-7.721992035E0,-1.643881531E0,8.054750061E-1,7.936012693E0
8.032709292E0,-7.557783508E0,-1.676663361E0,3.406915283E-1,7.749023313E0
8.042748292E0,-7.361242218E0,-1.545086975E0,6.750961304E-2,7.521950432E0
8.052788292E0,-7.106172638E0,-1.383572845E0,-2.538720703E-1,7.244060630E0
8.062827292E0,-7.001240845E0,-1.345402222E0,-6.421646118E-1,7.158202001E0
8.072866292E0,-7.082072754E0,-1.382525024E0,-8.622070313E-1,7.267085447E0
8.082906292E0,-6.996001740E0,-1.273102570E0,-7.054829407E-1,7.145805530E0
8.092945292E0,-6.718628540E0,-1.165326691E0,-4.191284180E-1,6.831809745E0
8.102984292E0,-6.501729584E0,-1.272952881E0,-3.487747192E-1,6.634345516E0
8.113024292E0,-6.072572021E0,-1.121018829E0,-1.681004333E-1,6.177464846E0
8.123063292E0,-5.749693451E0,-7.653584290E-1,-6.885681152E-3,5.800413409E0
8.133103292E0,-5.653742981E0,-6.662644958E-1,-6.391708374E-2,5.693224347E0
8.143142292E0,-5.717210999E0,-6.099815369E-1,-2.625540161E-1,5.755650588E0
8.153181292E0,-5.748645630E0,-5.316943359E-1,-4.802014160E-1,5.793118232E0
8.163221292E0,-5.761818237E0,-6.433621216E-1,-6.360273743E-1,5.832409025E0
8.173260292E0,-5.987399139E0,-7.532336426E-1,-8.131091309E-1,6.089126032E0
8.183299292E0,-6.092779999E0,-6.414161682E-1,-9.351054382E-1,6.197403085E0
8.193339292E0,-6.355633392E0,-9.821076965E-1,-1.022673340E0,6.511871628E0
8.203378292E0,-6.961573334E0,-1.677711182E0,-1.061293030E0,7.239099460E0
8.213418292E0,-8.080795898E0,-2.285746765E0,-1.117725677E0,8.471907183E0
8.223457292E0,-1.005264542E1,-3.147205353E0,-1.605710907E0,1.065546287E1
8.233496292E0,-1.269031036E1,-4.100572815E0,-2.211800537E0,1.351853306E1
8.243536292E0,-1.601130432E1,-4.961282959E0,-2.823877716E0,1.699854347E1
8.253575292E0,-1.984138962E1,-6.212530975E0,-3.369792480E0,2.106256833E1
8.263614292E0,-2.326746506E1,-8.049211578E0,-3.879183197E0,2.492414090E1
8.273654292E0,-2.531670364E1,-1.020248383E1,-3.879183197E0,2.756944363E1
8.283693292E0,-2.677586929E1,-1.200308945E1,-3.480412445E0,2.954885114E1
8.293733292E0,-2.812621124E1,-1.343920303E1,-3.428021393E0,3.135996281E1
8.303772292E0,-2.976530273E1,-1.486888000E1,-3.536695404E0,3.345990218E1
8.313811292E0,-3.051958420E1,-1.562211365E1,-3.637286224E0,3.447789590E1
8.323851292E0,-2.969360184E1,-1.494656845E1,-3.788621521E0,3.345838537E1
8.333890292E0,-2.788895462E1,-1.302920563E1,-4.180805969E0,3.106498234E1
8.343930292E0,-2.496957550E1,-1.057520874E1,-4.472249908E0,2.748300857E1
8.353969292E0,-2.147628983E1,-7.807314606E0,-4.238735504E0,2.324117176E1
8.364008292E0,-1.789618469E1,-5.066963196E0,-3.566932526E0,1.893859948E1
8.374048292E0,-1.410471909E1,-2.723735962E0,-2.338886261E0,1.455445729E1
8.384087292E0,-1.043031006E1,-9.786648560E-1,-1.088985443E0,1.053257054E1
8.394126292E0,-6.829248505E0,2.339634705E-1,1.113684082E-1,6.834162492E0
8.404166292E0,-3.682192841E0,1.194665680E0,1.220711517E0,4.059052452E0
8.414205292E0,-1.492995300E0,1.933379517E0,2.096839600E0,3.219274395E0
8.424245292E0,-1.020877075E-1,2.181413727E0,2.507136383E0,3.324863996E0
8.434284292E0,8.747808838E-1,1.754351807E0,2.455344086E0,3.141927185E0
8.444323292E0,2.019300842E0,1.544338531E0,2.702929230E0,3.710577288E0
8.454363292E0,2.627785492E0,1.411864014E0,2.927162933E0,4.179341984E0
8.464402292E0,2.430196381E0,1.230291595E0,2.803819427E0,3.909076008E0
8.474441292E0,2.139351196E0,1.209484863E0,2.217189331E0,3.309925332E0
8.484481292E0,2.011067963E0,9.861492920E-1,1.059197388E0,2.477656934E0
8.494520292E0,1.983375549E0,8.240364075E-1,-6.541397095E-2,2.148742320E0
8.504560292E0,1.879192200E0,8.499325562E-1,-7.988887024E-1,2.211780240E0
8.514599292E0,1.717079315E0,8.532257080E-1,-1.494641876E0,2.431112877E0
8.524638292E0,1.277144165E0,9.050180054E-1,-2.395767975E0,2.861792969E0
8.534678292E0,3.209326172E-1,1.196461945E0,-3.177143097E0,3.410096361E0
8.544717292E0,-4.821473694E-1,1.523232422E0,-3.514990540E0,3.861070006E0
8.554757292E0,-1.128802643E0,1.665885773E0,-3.386856995E0,3.939564838E0
8.564796292E0,-1.563648376E0,1.725611572E0,-2.957849121E0,3.764518956E0
8.574835292E0,-1.883832550E0,1.704206085E0,-2.400558014E0,3.495114052E0
8.584875292E0,-2.069446564E0,1.651964722E0,-1.683549042E0,3.137823114E0
8.594914292E0,-2.366878052E0,1.677262115E0,-1.041983185E0,3.082377147E0
8.604953292E0,-2.498005371E0,1.632355499E0,-5.939648438E-1,3.042599143E0
8.614993292E0,-2.310744781E0,1.444346466E0,-3.525169373E-1,2.747716570E0
8.625032292E0,-1.993255005E0,1.355131989E0,-1.577719116E-1,2.415437889E0
8.635072292E0,-1.686991882E0,1.329984283E0,-3.712280273E-2,2.148529243E0
8.645111292E0,-1.502725067E0,1.257085876E0,-2.095642090E-3,1.959196754E0
8.655150292E0,-1.633253632E0,1.079255676E0,8.232879639E-2,1.959359148E0
8.665190292E0,-2.090852051E0,1.053359528E0,2.170486450E-1,2.351241950E0
8.675229292E0,-2.454895020E0,1.013242950E0,3.939807129E-1,2.684844807E0
8.685268292E0,-2.761008453E0,7.812254333E-1,5.038522339E-1,2.913305327E0
8.695308292E0,-2.925516357E0,5.520520020E-1,5.697152710E-1,3.031168564E0
8.705347292E0,-3.121907959E0,3.124003601E-1,4.326004028E-1,3.167182723E0
8.715387292E0,-3.511098633E0,6.017486572E-2,8.143066406E-2,3.512558267E0
8.725426292E0,-3.941304016E0,-1.230441284E-1,-2.510279846E-1,3.951206430E0
8.735465292E0,-4.743036804E0,-5.599855042E-1,-4.028123474E-1,4.792936436E0
8.745505292E0,-6.907086639E0,-1.711690521E0,-4.367916870E-1,7.129412126E0
8.755544292E0,-1.045126648E1,-3.354374542E0,-6.089337158E-1,1.099325247E1
8.765584292E0,-1.437445816E1,-5.382207642E0,-9.800120544E-1,1.538030007E1
8.775623292E0,-1.786639664E1,-7.231761475E0,-1.283880157E0,1.931721644E1
8.785662292E0,-2.088546844E1,-8.697513428E0,-1.298250275E0,2.266131033E1
8.795702292E0,-2.574556183E1,-1.187959625E1,-1.299747162E0,2.838394095E1
8.805741292E0,-3.127970352E1,-1.644180908E1,-1.745819550E0,3.538079739E1
8.815780292E0,-3.509242493E1,-1.928095505E1,-2.714305573E0,4.013229335E1
8.825820292E0,-3.597888153E1,-1.915686310E1,-3.827390900E0,4.094037422E1
8.835859292E0,-3.229758682E1,-1.564097443E1,-3.958069153E0,3.610319248E1
8.845898292E0,-2.528227524E1,-1.058643539E1,-3.330574036E0,2.761084531E1
8.855938292E0,-1.808060120E1,-6.445296936E0,-2.798730011E0,1.939801232E1
8.865977292E0,-1.334385132E1,-4.438420258E0,-1.648222504E0,1.415890461E1
8.876017292E0,-1.159878021E1,-4.854255524E0,-6.656657410E-1,1.259121162E1
8.886056292E0,-1.102143082E1,-5.612877960E0,-3.623963928E-1,1.237366831E1
8.896095292E0,-1.016745667E1,-4.850363617E0,-4.110452271E-1,1.127262882E1
8.906135292E0,-9.048683167E0,-3.054248657E0,-7.758366394E-1,9.581702584E0
8.916174292E0,-8.463250580E0,-1.472787323E0,-1.648372192E0,8.747162040E0
8.926214292E0,-8.271050262E0,-1.636097717E-1,-3.000061340E0,8.799852763E0
8.936253292E0,-7.326215057E0,1.055604858E0,-4.264931030E0,8.542679052E0
8.946292292E0,-6.106850739E0,1.960173798E0,-5.174439697E0,8.240796894E0
8.956332292E0,-4.931045837E0,2.373314667E0,-5.412594452E0,7.697013334E0
8.966371292E0,-3.939807129E0,2.264940033E0,-4.876708832E0,6.665907485E0
8.976410292E0,-3.384012909E0,1.837129669E0,-3.744912415E0,5.371308759E0
8.986450292E0,-2.925366669E0,1.384021912E0,-2.662962341E0,4.191020786E0
8.996489292E0,-2.374811554E0,1.140478363E0,-1.924697571E0,3.262649468E0
9.006529292E0,-2.026485901E0,1.111139374E0,-1.467248840E0,2.737534470E0
9.016568083E0,-2.344574432E0,9.759704590E-1,-1.121617584E0,2.776251720E0
9.026607083E0,-3.406765594E0,4.492158508E-1,-7.045848083E-1,3.507746634E0
9.036647083E0,-4.466561737E0,-4.384382629E-1,-3.905378723E-1,4.504988534E0
9.046686083E0,-5.736820221E0,-1.570534058E0,8.083190918E-3,5.947919705E0
9.056725083E0,-7.000642090E0,-2.840193787E0,5.423222351E-1,7.574285697E0
9.066765083E0,-8.509953461E0,-4.072131958E0,1.264270935E0,9.518400474E0
9.076804083E0,-9.936337280E0,-4.943619690E0,1.644330597E0,1.121935815E1
9.086844083E0,-1.108504852E1,-5.191803589E0,1.568288727E0,1.234069102E1
9.096883083E0,-1.252220993E1,-4.727768555E0,9.282197571E-1,1.341712074E1
9.106922083E0,-1.439301956E1,-4.208199005E0,-1.025367737E-1,1.499594828E1
9.116962083E0,-1.629466507E1,-3.976031799E0,-1.244961090E0,1.681888423E1
9.127001083E0,-1.732167938E1,-3.857628021E0,-2.100432129E0,1.786991006E1
9.137040083E0,-1.672696609E1,-3.574416962E0,-2.313439178E0,1.726035493E1
9.147080083E0,-1.498593658E1,-2.984942780E0,-1.656605072E0,1.536985748E1
9.157119083E0,-1.284194504E1,-2.377056885E0,-6.655160522E-1,1.307703573E1
9.167159083E0,-1.086545517E1,-1.956730957E0,2.562670898E-1,1.104321443E1
9.177198083E0,-9.194629669E0,-1.462758179E0,7.610174561E-1,9.341307393E0
9.187237083E0,-8.031697998E0,-9.955796814E-1,8.907975769E-1,8.142043475E0
9.197277083E0,-7.208410034E0,-6.888674927E-1,9.340576172E-1,7.301244913E0
9.207316083E0,-6.543343048E0,-4.602928162E-1,8.312214661E-1,6.611969211E0
9.217356083E0,-6.290818176E0,-2.754272461E-1,6.128256226E-1,6.326595351E0
9.227395083E0,-6.515650635E0,-1.095721436E-1,3.799099731E-1,6.527636696E0
9.237434083E0,-7.053332520E0,7.858657837E-2,2.894979858E-1,7.059708533E0
9.247474083E0,-7.508984985E0,1.701960754E-1,3.115022278E-1,7.517370275E0
9.257513083E0,-7.656278687E0,6.271957397E-2,2.818638611E-1,7.661722020E0
9.267552083E0,-7.171137543E0,2.814147949E-2,3.153941345E-1,7.178125038E0
9.277592083E0,-6.381230164E0,2.799179077E-2,4.893324280E-1,6.400025638E0
9.287631083E0,-5.725892944E0,-6.301895142E-2,5.230123901E-1,5.750075074E0
9.297671083E0,-5.148842926E0,-2.462379456E-1,5.616320801E-1,5.185233572E0
9.307710083E0,-4.795577545E0,-3.177891541E-1,7.668553162E-1,4.866890282E0
9.317749083E0,-5.075345764E0,-6.402186584E-1,8.836125183E-1,5.191318295E0
9.327789083E0,-5.789360962E0,-1.384171600E0,8.575666809E-1,6.013988026E0
9.337828083E0,-6.144871674E0,-1.815724182E0,1.091230774E0,6.499775903E0
9.347867083E0,-6.232439575E0,-1.813778229E0,1.254541168E0,6.611124569E0
9.357907083E0,-6.117628326E0,-1.827998657E0,9.675878906E-1,6.457800071E0
9.367946083E0,-6.547684021E0,-1.934577026E0,5.550457764E-1,6.850024097E0
9.377986083E0,-8.278834076E0,-2.135309601E0,9.879455566E-3,8.549780018E0
9.388025083E0,-1.041129959E1,-2.689606934E0,-6.288423157E-1,1.077147099E1
9.398064083E0,-1.276904663E1,-3.315754852E0,-1.370549927E0,1.326352854E1
9.408104083E0,-1.588182358E1,-4.239034882E0,-2.296973419E0,1.659752463E1
9.418143083E0,-1.827923813E1,-5.530399475E0,-2.905907135E0,1.931735389E1
9.428182083E0,-2.024614792E1,-7.050937500E0,-2.979404297E0,2.164483946E1
9.438222083E0,-2.174438232E1,-8.675209808E0,-2.638862457E0,2.355930863E1
9.448261083E0,-2.293261139E1,-1.027672943E1,-2.374212799E0,2.524188423E1
9.458301083E0,-2.433160217E1,-1.184741318E1,-2.164648590E0,2.714910250E1
9.468340083E0,-2.571442657E1,-1.347991837E1,-2.167193298E0,2.911420032E1
9.478379083E0,-2.724693970E1,-1.483624786E1,-2.493514709E0,3.112438898E1
9.488419083E0,-2.911849777E1,-1.565354828E1,-3.096460876E0,3.320404427E1
9.498458083E0,-3.128988235E1,-1.556657913E1,-4.075724487E0,3.518503451E1
9.508497083E0,-3.122701309E1,-1.430799637E1,-5.057682495E0,3.471923471E1
9.518537083E0,-2.749632111E1,-1.150881729E1,-5.129682770E0,3.024589551E1
9.528576083E0,-2.170067322E1,-7.571854248E0,-4.514761505E0,2.342296451E1
9.538616083E0,-1.512394958E1,-3.415447540E0,-3.871698761E0,1.598090061E1
9.548655083E0,-9.259594574E0,9.699829102E-2,-3.189716949E0,9.794069357E0
9.558694083E0,-5.198389893E0,2.110610962E0,-2.691253510E0,6.222602475E0
9.568734083E0,-2.861599274E0,3.005749512E0,-2.023043060E0,4.616923624E0
9.578773083E0,-1.172212372E0,3.837869110E0,-1.051862640E0,4.148461904E0
9.588812083E0,2.035766602E-1,4.312681732E0,-3.495231628E-1,4.331608664E0
9.598852083E0,1.604513397E0,4.244124298E0,-3.876937866E-2,4.537461555E0
9.608891083E0,2.631677399E0,4.101470947E0,1.371148682E-1,4.875099009E0
9.618931083E0,3.122057648E0,3.911815338E0,3.802093506E-1,5.019372704E0
9.628970083E0,2.808459778E0,3.740870819E0,5.047503662E-1,4.704926539E0
9.639009083E0,1.411414948E0,3.262765045E0,3.415896606E-1,3.571331879E0
9.649049083E0,-2.562670898E-1,2.642454987E0,6.735992432E-3,2.654860929E0
9.659088083E0,-1.301543427E0,2.138153687E0,-2.939886475E-1,2.520346366E0
9.669128083E0,-1.786684570E0,1.727707214E0,-4.405339050E-1,2.524140268E0
9.679167083E0,-1.702559509E0,1.528172150E0,-4.718188477E-1,2.335943498E0
9.689206083E0,-1.184636536E0,1.326092377E0,-7.553292847E-1,1.931943850E0
9.699246083E0,-7.777825928E-1,9.704319763E-1,-1.127904510E0,1.678943884E0
9.709285083E0,-6.966513062E-1,7.162605286E-1,-1.340462494E0,1.671882737E0
9.719324083E0,-6.114784241E-1,4.794529724E-1,-1.404529266E0,1.605142821E0
9.729364083E0,-5.611830139E-1,2.770738220E-1,-1.273252258E0,1.418755649E0
9.739403083E0,-5.514532471E-1,1.589694214E-1,-1.052311707E0,1.198637513E0
9.749443083E0,-3.685336304E-1,8.232879639E-3,-9.484277344E-1,1.017546060E0
9.759482083E0,-2.046244812E-1,1.065783691E-1,-8.562194824E-1,8.867592284E-1
9.769521083E0,-4.296066284E-1,2.302212524E-1,-6.011499023E-1,7.739152960E-1
9.779561083E0,-1.089434509E0,2.591111755E-1,-2.674937439E-1,1.151329255E0
9.789600083E0,-1.657503204E0,3.878434753E-1,5.628295898E-2,1.703204980E0
9.799639083E0,-1.916315002E0,5.149291992E-1,2.080673218E-1,1.995170990E0
9.809679083E0,-1.962718506E0,5.617817688E-1,1.231938171E-1,2.045248006E0
9.819718083E0,-1.779349823E0,6.307882690E-1,3.697311401E-2,1.888212553E0
9.829758083E0,-1.545985107E0,7.444020081E-1,3.083587646E-2,1.716145435E0
9.839797083E0,-1.578018494E0,7.719447327E-1,-2.799179077E-2,1.756936133E0
9.849836083E0,-1.968256989E0,6.396199036E-1,-2.103126526E-1,2.080235709E0
9.859876083E0,-2.091899872E0,4.544549561E-1,-3.519181824E-1,2.169428678E0
9.869915083E0,-2.588716736E0,3.728746033E-1,-4.346960449E-1,2.651311083E0
9.879954083E0,-3.188070374E0,7.035369873E-3,-4.272116089E-1,3.216574570E0
9.889994083E0,-3.763473816E0,-3.571572876E-1,-2.733316040E-1,3.790251530E0
9.900033083E0,-4.982389069E0,-8.918453979E-1,-1.228944397E-1,5.063071409E0
9.910073083E0,-7.065157928E0,-2.002236328E0,-1.146615601E-1,7.344287177E0
9.920112083E0,-1.001297791E1,-3.466042328E0,-1.071771240E-1,1.059644577E1
9.930151083E0,-1.421503967E1,-5.265450439E0,-3.914360046E-1,1.516395540E1
9.940191083E0,-1.828043564E1,-7.359146576E0,-9.394464111E-1,1.972850539E1
9.950230083E0,-2.148182831E1,-9.130413208E0,-1.640588379E0,2.339925048E1
9.960269083E0,-2.516821243E1,-1.103295685E1,-2.594853973E0,2.760250570E1
9.970309083E0,-3.026346680E1,-1.421009995E1,-3.731440430E0,3.364116542E1
9.980348083E0,-3.332564896E1,-1.758228745E1,-4.994513855E0,3.800895788E1
9.990388083E0,-3.202859619E1,-1.829151260E1,-5.743406525E0,3.732823497E1
1.000042708E1,-2.717044876E1,-1.480526230E1,-4.563260651E0,3.127702712E1
1.001046608E1,-2.098037109E1,-9.317374420E0,-2.544408875E0,2.309682779E1
1.002050654E1,-1.576791046E1,-5.086422729E0,-8.948391724E-1,1.659214976E1
1.003054554E1,-1.370175705E1,-3.573219452E0,2.335144043E-2,1.416003491E1
1.004058454E1,-1.470257584E1,-4.302053833E0,5.748046875E-2,1.531916145E1
1.005062454E1,-1.618314697E1,-5.000800781E0,-1.609153748E-1,1.693895357E1
1.006066354E1,-1.609303436E1,-4.540507965E0,-3.088078308E-1,1.672415409E1
1.007070354E1,-1.454809708E1,-3.186872864E0,-6.185137939E-1,1.490589972E1
1.008074254E1,-1.245185623E1,-1.482068024E0,-1.000070343E0,1.257956239E1
1.009078154E1,-1.039094193E1,1.170565796E-1,-1.356928253E0,1.047982016E1
1.010082154E1,-8.771908722E0,1.321452026E0,-1.758243713E0,9.043452827E0
1.011086054E1,-7.502548370E0,2.103725281E0,-2.203567657E0,8.097505945E0
1.012089954E1,-6.485563202E0,2.459984436E0,-2.527943115E0,7.382719679E0
1.013093954E1,-5.877228241E0,2.480342102E0,-2.647544403E0,6.906764807E0
1.014097854E1,-5.009632416E0,2.415377197E0,-2.303110657E0,6.019533424E0
1.015101854E1,-3.744613037E0,2.527344360E0,-1.615141296E0,4.797736729E0
1.016105754E1,-2.643652496E0,2.588117981E0,-1.100212097E0,3.859756451E0
1.017109654E1,-1.865420837E0,2.483036499E0,-9.015751648E-1,3.233899030E0
1.018113654E1,-1.577719116E0,2.330952759E0,-7.635621643E-1,2.916430276E0
1.019117554E1,-1.949994965E0,2.020498352E0,-5.057981873E-1,2.853195710E0
1.020121454E1,-2.827619934E0,1.337768097E0,-3.640429688E-1,3.149219785E0
1.021125454E1,-3.840264130E0,7.532336426E-1,-1.663041687E-1,3.916969056E0
1.022129354E1,-4.930896149E0,3.987707520E-1,-1.347198486E-3,4.946994720E0
1.023133354E1,-6.256838837E0,-2.697390747E-1,1.886077881E-2,6.262678910E0
1.024137254E1,-7.860753479E0,-1.246607666E0,-1.721420288E-2,7.959005733E0
1.025141154E1,-9.294771423E0,-2.255509644E0,-2.754272461E-2,9.564562623E0
1.026145154E1,-1.050171158E1,-3.189417572E0,-1.703457642E-1,1.097667291E1
1.027149054E1,-1.190788742E1,-4.226311340E0,-4.463717651E-1,1.264352554E1
1.028152954E1,-1.347512833E1,-5.238356781E0,-6.756948853E-1,1.447328673E1
1.029156954E1,-1.487232285E1,-5.942642212E0,-7.688012695E-1,1.603408989E1
1.030160854E1,-1.580742828E1,-6.107898560E0,-5.924679565E-1,1.695677540E1
1.031164854E1,-1.639016647E1,-5.754333801E0,-3.845503235E-1,1.737520629E1
1.032168754E1,-1.633493134E1,-4.983885956E0,-2.700384521E-1,1.708045730E1
1.033172654E1,-1.542976364E1,-3.933819580E0,-2.351609802E-1,1.592506965E1
1.034176654E1,-1.379291748E1,-2.748434601E0,-4.179309082E-1,1.407029252E1
1.035180554E1,-1.202943466E1,-1.711540833E0,-7.033872986E-1,1.217092536E1
1.036184454E1,-1.031729507E1,-8.089178467E-1,-8.951385498E-1,1.038759832E1
1.037188454E1,-8.828790436E0,-1.793270874E-1,-7.966433716E-1,8.866472772E0
1.038192354E1,-7.879015503E0,4.161346436E-2,-6.691085815E-1,7.907485268E0
1.039196354E1,-7.542664948E0,-2.020797729E-1,-5.439688110E-1,7.564954251E0
1.040200254E1,-7.552095337E0,-5.686674500E-1,-2.966830444E-1,7.579284100E0
1.041204154E1,-7.527097321E0,-7.517367554E-1,5.733078003E-2,7.564759682E0
1.042208154E1,-7.391778717E0,-8.316705322E-1,2.848576355E-1,7.443870791E0
1.043212054E1,-7.071744232E0,-9.503736877E-1,4.412823486E-1,7.148951444E0
1.044215954E1,-6.706653442E0,-1.037791901E0,5.933660889E-1,6.812363447E0
1.045219954E1,-6.201154633E0,-1.040486298E0,8.406518555E-1,6.343786413E0
1.046223854E1,-5.631589050E0,-9.602531433E-1,1.016835480E0,5.802657643E0
1.047227854E1,-5.232967987E0,-7.885601807E-1,1.015937347E0,5.388683495E0
1.048231754E1,-4.987029419E0,-7.631130981E-1,8.586145020E-1,5.117618869E0
1.049235654E1,-5.238207092E0,-1.092278595E0,5.905220032E-1,5.383363475E0
1.050239654E1,-5.683830414E0,-1.588945770E0,4.071533203E-1,5.915779802E0
1.051243554E1,-6.079308014E0,-1.870061188E0,1.116677856E-1,6.361413716E0
1.052247454E1,-6.825356598E0,-2.018253021E0,-3.881428528E-1,7.128077779E0
1.053251454E1,-7.663314056E0,-1.750459900E0,-5.481600952E-1,7.879782464E0
1.054255354E1,-8.251291351E0,-1.272354126E0,-4.126918030E-1,8.359007627E0
1.055259354E1,-8.755892029E0,-7.358697510E-1,-5.587879944E-1,8.804509841E0
1.056263254E1,-9.426796875E0,-1.743873596E-1,-1.300944672E0,9.517739612E0
1.057267154E1,-1.095451996E1,3.233276367E-2,-2.504891052E0,1.123730538E1
1.058271154E1,-1.255214767E1,-1.237925720E-1,-3.428919525E0,1.301265634E1
1.059275054E1,-1.332439178E1,-5.818400574E-1,-3.555855560E0,1.380297298E1
1.060278954E1,-1.425425812E1,-1.637145538E0,-3.241209869E0,1.470950582E1
1.061282954E1,-1.555789719E1,-3.347788239E0,-2.516566772E0,1.611176462E1
1.062286854E1,-1.712139587E1,-5.273383942E0,-1.577719116E0,1.798443695E1
1.063290854E1,-1.950144653E1,-7.352560272E0,-1.045126648E0,2.086765078E1
1.064294754E1,-2.222413467E1,-9.408385162E0,-8.960366821E-1,2.415021232E1
1.065298654E1,-2.466690491E1,-1.091530151E1,-1.218765564E0,2.700158133E1
1.066302654E1,-2.712359619E1,-1.209649521E1,-1.968107300E0,2.976387261E1
1.067306554E1,-2.975048355E1,-1.345566879E1,-2.909799042E0,3.278129382E1
1.068310454E1,-3.115621033E1,-1.473071732E1,-3.630999298E0,3.465382563E1
1.069314454E1,-3.052961334E1,-1.505434433E1,-3.842359772E0,3.425571927E1
1.070318354E1,-2.789853470E1,-1.387644379E1,-3.340303802E0,3.133754234E1
1.071322354E1,-2.415691544E1,-1.159204422E1,-2.246977386E0,2.688830526E1
1.072326254E1,-1.986803421E1,-8.890761566E0,-1.257984009E0,2.180291147E1
1.073330154E1,-1.540985504E1,-6.023025055E0,-3.278182983E-1,1.654835122E1
1.074334154E1,-1.124267075E1,-3.009192352E0,1.905537415E-1,1.163998260E1
1.075338054E1,-8.001760254E0,-3.849993896E-1,3.965254211E-1,8.020824403E0
1.076341954E1,-5.519172821E0,1.457070007E0,3.314108276E-1,5.717880269E0
1.077345954E1,-3.482807465E0,2.752625885E0,5.538482666E-2,4.439590587E0
1.078349854E1,-1.534010010E0,3.819756775E0,-2.140548706E-2,4.116331707E0
1.079353854E1,9.116043091E-2,4.536466370E0,2.466870117E-1,4.544083167E0
1.080357754E1,9.128018188E-1,4.693040771E0,6.583309937E-1,4.826099723E0
1.081361654E1,1.234931946E0,4.657115479E0,1.206790466E0,4.966902930E0
1.082365654E1,9.981243896E-1,4.328997803E0,1.428030396E0,4.666448873E0
1.083369554E1,8.334667969E-1,3.930227051E0,1.353934479E0,4.239633256E0
1.084373454E1,8.478369141E-1,3.727698212E0,8.514294434E-1,3.916566543E0
1.085377454E1,5.815406799E-1,3.552861786E0,1.660047913E-1,3.603966429E0
1.086381354E1,2.044747925E-1,3.340603180E0,-5.577401733E-1,3.393009527E0
1.087385354E1,-3.475772095E-1,3.173999634E0,-8.714877319E-1,3.309769548E0
1.088389254E1,-8.717871094E-1,2.906056824E0,-8.687933350E-1,3.155943739E0
1.089393154E1,-1.397493896E0,2.585124207E0,-8.370593262E-1,3.055572724E0
1.090397154E1,-1.689237213E0,2.251917114E0,-6.415658569E-1,2.887258180E0
1.091401054E1,-1.335522766E0,1.956730957E0,-2.760260010E-1,2.385080177E0
1.092404954E1,-8.753796387E-1,1.667083282E0,1.227447510E-2,1.882978185E0
1.093408954E1,-5.777984619E-1,1.377136230E0,2.847079468E-1,1.520333475E0
1.094412854E1,-4.062551880E-1,1.089434509E0,5.147795105E-1,1.271577277E0
1.095416854E1,-4.926255798E-1,8.599617004E-1,7.129673767E-1,1.220875329E0
1.096420754E1,-7.077282715E-1,6.542893982E-1,8.851094055E-1,1.308584190E0
1.097424654E1,-1.060544586E0,5.608836365E-1,8.482859802E-1,1.469331269E0
1.098428654E1,-1.529968414E0,4.590953064E-1,5.842350769E-1,1.700853455E0
1.099432554E1,-2.097138977E0,4.641847229E-1,3.333567810E-1,2.173611301E0
1.100436454E1,-2.305954742E0,6.047424316E-1,3.135978699E-1,2.404471731E0
1.101440454E1,-2.292931824E0,6.629713440E-1,2.630030823E-1,2.401299226E0
1.102444342E1,-2.202220459E0,6.765930176E-1,2.251318359E-1,2.314786687E0
1.103448342E1,-2.122286682E0,7.502398682E-1,2.537223816E-1,2.265245167E0
1.104452242E1,-2.063608704E0,7.750881958E-1,1.375639343E-1,2.208657155E0
1.105456142E1,-1.999392242E0,7.301815796E-1,2.918930054E-2,2.128752333E0
1.106460142E1,-2.028731232E0,4.942721558E-1,1.242416382E-1,2.091767520E0
1.107464042E1,-2.298320618E0,1.002914429E-1,2.576142883E-1,2.314886856E0
1.108467942E1,-2.934797058E0,-2.782713318E-1,2.936892700E-1,2.962553306E0
1.109471942E1,-4.455185394E0,-7.677534485E-1,-6.256988525E-2,4.521287123E0
1.110475842E1,-6.497538300E0,-1.320853271E0,-3.959266663E-1,6.642244744E0
1.111479842E1,-9.077423401E0,-1.861379242E0,-7.708969116E-1,9.298313306E0
1.112483742E1,-1.275228149E1,-2.830314331E0,-1.484313354E0,1.314665542E1
1.113487642E1,-1.639211243E1,-3.979474640E0,-2.610571289E0,1.706905535E1
1.114491642E1,-1.945354614E1,-5.035229187E0,-3.559298401E0,2.040741521E1
1.115495542E1,-2.183419556E1,-6.304439850E0,-4.164789276E0,2.310462134E1
1.116499442E1,-2.453712479E1,-8.217162323E0,-4.480632477E0,2.626153683E1
1.117503442E1,-2.835643250E1,-1.169218597E1,-4.379742279E0,3.098348946E1
1.118507342E1,-3.089230911E1,-1.524519745E1,-4.281845856E0,3.471433438E1
1.119511342E1,-3.129826492E1,-1.660781387E1,-3.967948608E0,3.565312728E1
1.120515242E1,-2.883738235E1,-1.481184860E1,-2.687211914E0,3.253008743E1
1.121519142E1,-2.408431641E1,-1.062490540E1,-1.117575989E0,2.634752147E1
1.122523142E1,-1.941836929E1,-6.668632507E0,-3.797602844E-1,2.053504184E1
1.123527042E1,-1.644330597E1,-4.578079834E0,-2.287243652E-1,1.707025017E1
1.124530942E1,-1.536554718E1,-3.715573425E0,-1.047821045E-3,1.580840052E1
1.125534942E1,-1.484492981E1,-2.901266785E0,2.067201233E-1,1.512719482E1
1.126538842E1,-1.392853546E1,-1.921853485E0,3.908372498E-1,1.406592957E1
1.127542842E1,-1.224169327E1,-7.466473389E-1,5.909710693E-1,1.227867188E1
1.128546742E1,-1.006716522E1,4.511618042E-1,7.423063660E-1,1.010457230E1
1.129550642E1,-7.917934570E0,1.482816467E0,5.463638306E-1,8.074091031E0
1.130554642E1,-6.108647003E0,2.419568481E0,1.225950623E-1,6.571522609E0
1.131558542E1,-5.165757751E0,3.019969940E0,-2.941383362E-1,5.990975626E0
1.132562442E1,-4.966222687E0,3.287313995E0,-4.827461243E-1,5.975185763E0
1.133566442E1,-4.696333923E0,3.319946136E0,-4.689747620E-1,5.770401372E0
1.134570342E1,-4.281845856E0,3.127446442E0,-4.986131287E-1,5.325761939E0
1.135574342E1,-3.936963043E0,2.811303864E0,-5.888754272E-1,4.873385034E0
1.136578242E1,-3.511847076E0,2.490071869E0,-5.751040649E-1,4.343302026E0
1.137582142E1,-3.055296478E0,2.272574158E0,-7.626640320E-1,3.883437433E0
1.138586142E1,-2.766996002E0,2.141297150E0,-1.078656921E0,3.661273155E0
1.139590042E1,-2.799777832E0,1.885030060E0,-1.229842529E0,3.592298273E0
1.140593942E1,-3.062780914E0,1.571132813E0,-1.101259918E0,3.614119347E0
1.141597942E1,-3.485052795E0,1.227148132E0,-6.191125488E-1,3.746302961E0
1.142601842E1,-4.844525757E0,5.972579956E-1,-4.939727783E-3,4.881205929E0
1.143605842E1,-6.808741150E0,-4.306544495E-1,7.312294006E-1,6.861422282E0
1.144609742E1,-8.817713470E0,-1.660946045E0,1.322200470E0,9.069676218E0
1.145613642E1,-1.104777603E1,-2.851420441E0,1.527423706E0,1.151160184E1
1.146617642E1,-1.357077942E1,-3.755390625E0,1.278042297E0,1.413868469E1
1.147621542E1,-1.570070023E1,-4.391268311E0,6.460565186E-1,1.631602323E1
1.148625442E1,-1.672337357E1,-4.477339325E0,-2.118095398E-1,1.731365513E1
1.149629442E1,-1.644001282E1,-3.716770935E0,-1.011895752E0,1.688526993E1
1.150633342E1,-1.516571274E1,-2.519410858E0,-1.470691681E0,1.544374333E1
1.151637342E1,-1.362511642E1,-1.478774872E0,-1.359323273E0,1.377237570E1
1.152641242E1,-1.233270401E1,-9.196875000E-1,-8.189469910E-1,1.239403435E1
1.153645142E1,-1.138457565E1,-6.050418091E-1,1.484912109E-1,1.140160901E1
1.154649142E1,-1.053569092E1,-4.562512207E-1,7.210505676E-1,1.057018743E1
1.155653042E1,-9.737550659E0,-4.655319214E-1,1.255139923E0,9.829139791E0
1.156656942E1,-8.777746582E0,-4.590953064E-1,1.848805389E0,8.982075758E0
1.157660942E1,-7.682923279E0,-3.586541748E-1,2.156565399E0,7.987910693E0
1.158664842E1,-6.736591187E0,-2.293231201E-1,1.974843292E0,7.023834845E0
1.159668742E1,-6.468348999E0,-1.519340515E-1,1.379980316E0,6.615660844E0
1.160672742E1,-6.753356323E0,-1.516346741E-1,6.602769470E-1,6.787251310E0
1.161676642E1,-7.142546997E0,-2.709365845E-2,-8.951385498E-2,7.143159273E0
1.162680642E1,-7.266938324E0,7.948471069E-2,-7.442523193E-1,7.305383080E0
1.163684542E1,-7.102580109E0,1.667532349E-1,-1.154100037E0,7.197666131E0
1.164688442E1,-6.861581268E0,2.526745605E-1,-1.417103119E0,7.010943102E0
1.165692442E1,-6.359375610E0,2.764750671E-1,-1.398242340E0,6.517144947E0
1.166696342E1,-5.711223450E0,2.782713318E-1,-9.764195251E-1,5.800767476E0
1.167700242E1,-5.159770203E0,2.085163879E-1,-3.170407104E-1,5.173704905E0
1.168704242E1,-4.868026886E0,9.295669556E-2,3.885919189E-1,4.884396625E0
1.169708142E1,-4.793781281E0,5.358856201E-2,1.065035248E0,4.910958234E0
1.170712142E1,-5.053640900E0,-4.355941772E-2,1.612147522E0,5.304734055E0
1.171716042E1,-5.311105499E0,-3.502716064E-2,1.976639557E0,5.667113239E0
1.172719942E1,-5.348228302E0,-2.110610962E-2,1.779050446E0,5.636400618E0
1.173723942E1,-5.625002747E0,1.137634277E-2,1.168769531E0,5.745155136E0
1.174727842E1,-5.886508942E0,2.070195007E-1,5.971083069E-1,5.920336386E0
1.175731742E1,-6.006559296E0,3.803590393E-1,1.293310547E-1,6.019979576E0
1.176735742E1,-7.002588043E0,-1.676513672E-2,-2.703378296E-1,7.007824407E0
1.177739642E1,-9.146280212E0,-9.048683167E-1,-4.090992737E-1,9.200032098E0
1.178743642E1,-1.184501816E1,-1.630409546E0,-1.291813660E-1,1.195739847E1
1.179747542E1,-1.511407013E1,-1.971849518E0,2.815644836E-1,1.524475598E1
1.180751442E1,-1.859987137E1,-2.532433777E0,1.547781372E-1,1.877211741E1
1.181755442E1,-2.165891006E1,-3.504063263E0,-4.667294312E-1,2.194549341E1
1.182759342E1,-2.464400253E1,-4.711751862E0,-1.170266418E0,2.511766291E1
1.183763242E1,-2.715413269E1,-6.308032379E0,-1.676363983E0,2.792755612E1
1.184767242E1,-2.914619019E1,-8.027057648E0,-2.297721863E0,3.031853530E1
1.185771142E1,-3.080953125E1,-9.475894775E0,-3.106639709E0,3.238319021E1
1.186775142E1,-3.194117798E1,-1.041938278E1,-3.993994446E0,3.383421907E1
1.187779042E1,-3.229040176E1,-1.079016174E1,-4.695136414E0,3.436774567E1
1.188782942E1,-3.149300995E1,-1.037088364E1,-5.039270782E0,3.353742914E1
1.189786942E1,-2.876478333E1,-8.899742889E0,-4.823868713E0,3.049406324E1
1.190790842E1,-2.464579880E1,-6.886878662E0,-3.841012573E0,2.587658930E1
1.191794742E1,-2.008897476E1,-4.896018677E0,-2.210603027E0,2.079482319E1
1.192798742E1,-1.583706665E1,-3.182382202E0,-4.917274475E-1,1.616112720E1
1.193802642E1,-1.214424591E1,-1.606908417E0,7.399113464E-1,1.227242161E1
1.194806642E1,-9.551038513E0,3.502716064E-2,1.564247131E0,9.678348654E0
1.195810542E1,-7.262148285E0,1.623673553E0,2.260449371E0,7.777193895E0
1.196814442E1,-4.839586029E0,2.968027954E0,2.340981903E0,6.140926570E0
1.197818442E1,-2.394869843E0,3.819607086E0,1.903591461E0,4.893716411E0
1.198822342E1,-9.101074219E-2,4.083508301E0,1.552122345E0,4.369485870E0
1.199826242E1,1.538800049E0,3.953428802E0,1.422042847E0,4.474339141E0
1.200830242E1,2.293081512E0,3.547922058E0,1.344055023E0,4.433109254E0
1.201834117E1,2.330952759E0,3.072211304E0,1.153950348E0,4.025347744E0
1.202838117E1,1.976639557E0,2.747087402E0,7.872129822E-1,3.474665079E0
1.203842017E1,1.514101410E0,2.376158752E0,3.146456909E-1,2.835072381E0
1.204845917E1,9.635462952E-1,2.160307617E0,-2.189945984E-1,2.375565006E0
1.205849917E1,3.974235535E-1,1.844614105E0,-5.978567505E-1,1.979388636E0
1.206853817E1,-6.137237549E-2,1.627864838E0,-7.231462097E-1,1.782316172E0
1.207857717E1,-5.547463989E-1,1.514550476E0,-4.074526978E-1,1.663617869E0
1.208861717E1,-1.112486572E0,1.377136230E0,5.987548828E-3,1.770357710E0
1.209865617E1,-1.597328339E0,1.140328674E0,8.801696777E-2,1.964574838E0
1.210869517E1,-1.878743134E0,9.975256348E-1,-5.209167480E-2,2.127779758E0
1.211873517E1,-1.896855469E0,1.048569489E0,-3.875440979E-1,2.201760448E0
1.212877417E1,-1.677860870E0,1.174158325E0,-8.171507263E-1,2.204903667E0
1.213881417E1,-1.400637360E0,1.377285919E0,-1.128203888E0,2.265291489E0
1.214885317E1,-1.336570587E0,1.509161682E0,-1.179397430E0,2.335587339E0
1.215889217E1,-1.635199585E0,1.482517090E0,-1.165626068E0,2.496080675E0
1.216893217E1,-2.051334229E0,1.395697632E0,-9.469308472E-1,2.655677320E0
1.217897117E1,-2.144290924E0,1.407223663E0,-3.930825806E-1,2.594759318E0
1.218901017E1,-2.236499176E0,1.361119537E0,9.699829102E-2,2.619920538E0
1.219905017E1,-2.782563629E0,1.295106812E0,3.864962769E-1,3.093435206E0
1.220908917E1,-3.263663177E0,1.084045715E0,5.066963196E-1,3.476117606E0
1.221912917E1,-3.082240448E0,6.550378418E-1,2.865042114E-1,3.164074180E0
1.222916817E1,-2.365231476E0,3.626957703E-1,-1.181044006E-1,2.395791478E0
1.223920717E1,-1.775906982E0,2.469863892E-1,-4.625381470E-1,1.851699064E0
1.224924717E1,-1.548829193E0,7.544311523E-2,-8.343649292E-1,1.760888517E0
1.225928617E1,-1.640438690E0,-1.401086426E-1,-1.086291046E0,1.972485175E0
1.226932517E1,-2.014810181E0,-2.387535095E-1,-1.041983185E0,2.280831484E0
1.227936517E1,-2.643652496E0,-4.285588074E-1,-9.089099121E-1,2.828193487E0
1.228940417E1,-3.666026459E0,-6.268963623E-1,-9.039701843E-1,3.827520234E0
1.229944417E1,-5.311853943E0,-8.042774963E-1,-7.547305298E-1,5.425151866E0
1.230948317E1,-8.178542633E0,-1.595382385E0,-4.951702881E-1,8.347394694E0
1.231952217E1,-1.254196884E1,-2.843486938E0,-3.574566650E-1,1.286523127E1
1.232956217E1,-1.784633835E1,-4.299808502E0,-6.682104492E-1,1.836917665E1
1.233960117E1,-2.310490311E1,-6.147117004E0,-1.274000702E0,2.394257031E1
1.234964017E1,-2.827515152E1,-9.019044800E0,-2.000589752E0,2.974608751E1
1.235968017E1,-3.198698273E1,-1.257684631E1,-3.013084259E0,3.450250431E1
1.236971917E1,-3.194312393E1,-1.436038742E1,-3.829336853E0,3.523134562E1
1.237975917E1,-2.937461517E1,-1.387599472E1,-3.487298126E0,3.267372789E1
1.238979817E1,-2.489188705E1,-1.149714157E1,-2.086810455E0,2.749809236E1
1.239983717E1,-2.034179901E1,-8.414901123E0,-5.680686951E-1,2.202094571E1
1.240987717E1,-1.758064087E1,-6.401438141E0,4.698728943E-1,1.871571864E1
1.241991617E1,-1.652563477E1,-5.722749481E0,1.020428009E0,1.751821165E1
1.242995517E1,-1.625290192E1,-5.409151611E0,1.522483978E0,1.719690959E1
1.243999517E1,-1.588571548E1,-4.940476227E0,1.737137604E0,1.672668254E1
1.245003417E1,-1.512290176E1,-4.190535736E0,1.440155182E0,1.575870535E1
1.246007317E1,-1.373498795E1,-2.957549744E0,9.636959839E-1,1.408281592E1
1.247011317E1,-1.178589111E1,-1.329086151E0,5.246589661E-1,1.187219299E1
1.248015217E1,-9.954299927E0,1.832189941E-1,6.676116943E-2,9.956209785E0
1.249019217E1,-8.571625214E0,1.157393188E0,-4.213737488E-1,8.659669372E0
1.250023117E1,-7.406597900E0,1.842219086E0,-8.086184692E-1,7.674980615E0
1.251027017E1,-6.367159424E0,2.327060852E0,-7.661068726E-1,6.822232118E0
1.252031017E1,-5.298381958E0,2.530188446E0,-2.508782959E-1,5.876873732E0
1.253034917E1,-4.389322357E0,2.521207123E0,4.465214539E-1,5.081536925E0
1.254038817E1,-3.572171631E0,2.351460114E0,1.122515717E0,4.421517427E0
1.255042817E1,-2.877765656E0,2.196831665E0,1.476828918E0,3.910067543E0
1.256046717E1,-2.333347778E0,2.033371582E0,1.396146698E0,3.395340550E0
1.257050717E1,-1.972597961E0,1.820813599E0,1.010099487E0,2.868240899E0
1.258054617E1,-1.707199860E0,1.566193085E0,4.415817261E-1,2.358492434E0
1.259058517E1,-1.668879547E0,1.255289612E0,-2.441423035E-1,2.102502418E0
1.260062517E1,-2.165846100E0,1.005758514E0,-6.333329773E-1,2.470536415E0
1.261066417E1,-3.118914185E0,6.941065979E-1,-7.325765991E-1,3.278121129E0
1.262070317E1,-4.464915161E0,-4.864883423E-2,-6.388714600E-1,4.510653040E0
1.263074317E1,-6.370153198E0,-1.103355560E0,-4.474195862E-1,6.480465226E0
1.264078217E1,-8.953630829E0,-2.501298523E0,-1.830693054E-1,9.298253260E0
1.265082217E1,-1.205368423E1,-3.966451721E0,1.031355286E-1,1.268994404E1
1.266086117E1,-1.565190170E1,-5.028642883E0,1.770817566E-1,1.644082218E1
1.267090017E1,-1.847877319E1,-5.499264221E0,1.812730408E-1,1.928055564E1
1.268094017E1,-1.995709900E1,-5.237009583E0,1.719923401E-1,2.063350797E1
1.269097917E1,-1.959560074E1,-4.071233826E0,1.425036621E-1,2.001456521E1
1.270101817E1,-1.777688278E1,-2.507286072E0,3.323089600E-2,1.795285908E1
1.271105817E1,-1.561837143E1,-1.425934753E0,-9.595046997E-2,1.568362275E1
1.272109717E1,-1.386596558E1,-8.342152405E-1,-9.580078125E-2,1.389136762E1
1.273113617E1,-1.267085083E1,-5.454656982E-1,-1.167572021E-2,1.268259161E1
1.274117617E1,-1.166000290E1,-3.794609070E-1,2.968327332E-1,1.166995149E1
1.275121517E1,-1.053030212E1,-1.734892273E-1,8.355624390E-1,1.056482494E1
1.276125517E1,-9.413324890E0,6.212081909E-2,1.494941254E0,9.531494837E0
1.277129417E1,-8.553961945E0,3.261717224E-1,2.155068512E0,8.827285723E0
1.278133317E1,-8.140372009E0,5.816903687E-1,2.729274445E0,8.605402903E0
1.279137317E1,-8.001610565E0,9.589059448E-1,3.294499054E0,8.706261900E0
1.280141217E1,-7.971822510E0,1.280137939E0,3.649111633E0,8.860289103E0
1.281145117E1,-7.761659546E0,1.404229889E0,3.542982330E0,8.646845915E0
1.282149117E1,-7.297175446E0,1.460961914E0,3.038231964E0,8.038285431E0
1.283153017E1,-6.585555267E0,1.586700439E0,2.160606995E0,7.110230590E0
1.284157017E1,-5.711373138E0,1.725910950E0,1.019080811E0,6.052856964E0
1.285160917E1,-4.991071014E0,1.744472351E0,-7.110214233E-2,5.287629825E0
1.286164817E1,-4.555626526E0,1.724114685E0,-8.181985474E-1,4.939205741E0
1.287168817E1,-4.527634735E0,1.625320129E0,-1.022074585E0,4.917903850E0
1.288172717E1,-4.967569885E0,1.402134247E0,-8.551716614E-1,5.232021558E0
1.289176617E1,-5.508993988E0,1.100960541E0,-4.070036316E-1,5.632653090E0
1.290180617E1,-5.772146759E0,7.153623962E-1,6.885681152E-3,5.816310599E0
1.291184517E1,-6.399791565E0,1.695973206E-1,3.126997375E-1,6.409670542E0
1.292188517E1,-7.236850891E0,-4.128414917E-1,6.509962463E-1,7.277791219E0
1.293192417E1,-7.888445892E0,-1.113235016E0,9.949809265E-1,8.028502839E0
1.294196317E1,-9.094787292E0,-1.858834534E0,1.299447784E0,9.373312449E0
1.295200317E1,-1.128578110E1,-2.873574371E0,1.228944397E0,1.171053325E1
1.296204217E1,-1.510613663E1,-4.127816162E0,8.909472656E-1,1.568528027E1
1.297208117E1,-1.997910324E1,-5.453459473E0,2.821632385E-1,2.071193865E1
1.298212117E1,-2.433414688E1,-7.026837616E0,-3.760180664E-1,2.533117725E1
1.299216017E1,-2.743809219E1,-8.856033783E0,-8.665480042E-1,2.884491538E1
1.300219917E1,-2.904664719E1,-1.074046509E1,-9.201365662E-1,3.098244591E1
1.301223917E1,-3.028427353E1,-1.255723709E1,-8.321195984E-1,3.279502782E1
1.302227854E1,-3.141053146E1,-1.412926804E1,-9.424401855E-1,3.445498361E1
1.303231854E1,-3.193519043E1,-1.477816864E1,-1.084644470E0,3.520549829E1
1.304235754E1,-3.153297684E1,-1.424348053E1,-1.285227356E0,3.462451697E1
1.305239654E1,-2.933015762E1,-1.237536530E1,-1.203647003E0,3.185681369E1
1.306243654E1,-2.533915695E1,-9.324409790E0,-9.821076965E-1,2.701817959E1
1.307247554E1,-2.087708588E1,-6.042634277E0,-9.583071899E-1,2.175510277E1
1.308251454E1,-1.551328995E1,-3.271147614E0,-7.792794800E-1,1.587355815E1
1.309255454E1,-1.004875351E1,-9.271719360E-1,-3.107537842E-1,1.009622022E1
1.310259354E1,-5.439239044E0,8.273295593E-1,3.755690002E-1,5.514603127E0
1.311263354E1,-2.049388275E0,1.847158813E0,1.217118988E0,3.015520953E0
1.312267254E1,2.375559998E-1,2.379302216E0,1.663191376E0,2.912682173E0
1.313271154E1,1.611249390E0,2.582729187E0,1.633852386E0,3.454864436E0
1.314275154E1,2.453697510E0,2.460283813E0,1.256038055E0,3.694761090E0
1.315279054E1,2.941383362E0,2.038460999E0,7.872129822E-1,3.664254850E0
1.316282954E1,2.987637177E0,1.434766388E0,2.013313293E-1,3.320401300E0
1.317286954E1,2.633623352E0,7.424560547E-1,-4.930746460E-1,2.780348101E0
1.318290854E1,2.146236877E0,2.103126526E-1,-9.136999512E-1,2.342095589E0
1.319294854E1,1.593885498E0,-2.088157654E-1,-1.105750580E0,1.951091835E0
1.320298754E1,7.589218140E-1,-5.962101746E-1,-1.107995911E0,1.469382125E0
1.321302654E1,-1.440005493E-1,-9.029223633E-1,-1.057550812E0,1.398005247E0
1.322306654E1,-2.513273621E-1,-8.891510010E-1,-1.043480072E0,1.393773872E0
1.323310554E1,2.933898926E-2,-6.039939880E-1,-1.214873657E0,1.357051037E0
1.324314454E1,9.355545044E-2,-3.462300110E-1,-1.379980316E0,1.425823803E0
1.325318454E1,-1.975891113E-1,-3.128494263E-1,-1.338516541E0,1.388719824E0
1.326322354E1,-6.905140686E-1,-3.841012573E-1,-1.130598907E0,1.379346709E0
1.327326254E1,-1.069675598E0,-4.179309082E-1,-1.085392914E0,1.580174012E0
1.328330254E1,-1.660197601E0,-5.472619629E-1,-1.242266693E0,2.144522853E0
1.329334154E1,-2.297272797E0,-6.384223938E-1,-1.376537476E0,2.753161978E0
1.330338154E1,-2.193239136E0,-5.655239868E-1,-1.177900543E0,2.552952208E0
1.331342054E1,-1.703457642E0,-3.845503235E-1,-9.535171509E-1,1.989683856E0
1.332345954E1,-1.376986542E0,-2.427951050E-1,-7.876620483E-1,1.604821766E0
1.333349954E1,-1.187779999E0,-1.493893433E-1,-8.084687805E-1,1.444562311E0
1.334353854E1,-9.151968384E-1,-7.873626709E-2,-1.219214630E0,1.526521853E0
1.335357754E1,-5.783972168E-1,1.769320679E-1,-1.599723358E0,1.710252356E0
1.336361754E1,-7.147636414E-1,4.796026611E-1,-1.748663635E0,1.949033167E0
1.337365654E1,-1.411864014E0,6.354286194E-1,-1.846859436E0,2.409983257E0
1.338369654E1,-2.021396484E0,6.557862854E-1,-1.895358582E0,2.847539912E0
1.339373554E1,-2.473007355E0,6.685098267E-1,-1.897005157E0,3.187679302E0
1.340377454E1,-2.631976776E0,6.078858948E-1,-1.775457916E0,3.232503337E0
1.341381454E1,-2.666704559E0,5.089416504E-1,-1.396146698E0,3.052795508E0
1.342385354E1,-2.774330750E0,2.695893860E-1,-1.202599182E0,3.035759269E0
1.343389254E1,-3.071462860E0,-3.073109436E-1,-1.257984009E0,3.333293849E0
1.344393254E1,-3.958518219E0,-9.150471497E-1,-1.337468719E0,4.277382418E0
1.345397154E1,-6.165229340E0,-1.608704681E0,-1.287173309E0,6.500369120E0
1.346401054E1,-9.990075531E0,-2.811902618E0,-1.147962799E0,1.044156234E1
1.347405054E1,-1.469404358E1,-4.287833405E0,-1.253792725E0,1.535813883E1
1.348408954E1,-1.975516891E1,-5.566175079E0,-1.933978271E0,2.061526803E1
1.349412954E1,-2.440420120E1,-6.817572784E0,-2.819387054E0,2.549496575E1
1.350416854E1,-2.895937866E1,-9.356742554E0,-3.568878479E0,3.064198325E1
1.351420754E1,-3.178580109E1,-1.278850616E1,-3.934118958E0,3.448710386E1
1.352424754E1,-3.167757614E1,-1.473655518E1,-3.456462250E0,3.510814749E1
1.353428654E1,-2.933375015E1,-1.413675247E1,-2.319726105E0,3.264502715E1
1.354432554E1,-2.560455505E1,-1.171104675E1,-5.218148804E-1,2.816050685E1
1.355436554E1,-2.130369873E1,-8.681945801E0,5.348377991E-1,2.301108024E1
1.356440454E1,-1.796728683E1,-6.279741211E0,7.096742249E-1,1.904631679E1
1.357444454E1,-1.626682297E1,-4.794380035E0,5.918692017E-1,1.696896928E1
1.358448354E1,-1.547751434E1,-3.938459930E0,3.508703613E-1,1.597460569E1
1.359452254E1,-1.514400787E1,-3.332220612E0,2.037263489E-1,1.550761662E1
1.360456254E1,-1.476035568E1,-2.468816071E0,8.532257080E-3,1.496540095E1
1.361460154E1,-1.413884811E1,-1.144669647E0,-2.432441711E-1,1.418719360E1
1.362464054E1,-1.285541702E1,4.062551880E-1,-4.617897034E-1,1.287012198E1
1.363468054E1,-1.090781708E1,1.932780762E0,-6.116281128E-1,1.109460246E1
1.364471954E1,-8.922794952E0,3.132535858E0,-7.638615417E-1,9.487493616E0
1.365475854E1,-7.324718170E0,3.725003815E0,-8.286767578E-1,8.259167928E0
1.366479854E1,-6.240073700E0,3.717369690E0,-6.456074524E-1,7.292061860E0
1.367483754E1,-5.693260803E0,3.354224854E0,-2.106120300E-1,6.611232893E0
1.368487754E1,-5.228926392E0,2.977757721E0,3.320095825E-1,6.026519942E0
1.369491654E1,-4.634213104E0,2.746788025E0,8.738827515E-1,5.457512860E0
1.370495554E1,-4.254752197E0,2.552042999E0,1.161434784E0,5.095563805E0
1.371499554E1,-4.220024414E0,2.292931824E0,1.246607666E0,4.961871933E0
1.372503454E1,-4.806355133E0,1.694027252E0,1.186881866E0,5.232539208E0
1.373507354E1,-5.437293091E0,9.011260986E-1,1.263821869E0,5.654505294E0
1.374511354E1,-5.888903961E0,1.716929626E-1,1.467248840E0,6.071366197E0
1.375515254E1,-6.758595428E0,-6.068380737E-1,1.341360626E0,6.917088473E0
1.376519254E1,-8.059240723E0,-1.471889191E0,7.569758606E-1,8.227443787E0
1.377523154E1,-9.414223022E0,-2.295925598E0,2.139051819E-1,9.692503541E0
1.378527054E1,-1.033795212E1,-2.799328766E0,-1.402583313E-1,1.071117024E1
1.379531054E1,-1.116004257E1,-3.143463135E0,-3.715274048E-1,1.160025617E1
1.380534954E1,-1.236907837E1,-3.587290192E0,-5.586383057E-1,1.289088156E1
1.381538854E1,-1.375639343E1,-4.020489349E0,-5.240602112E-1,1.434145509E1
1.382542854E1,-1.433000061E1,-4.317022705E0,-1.848655701E-1,1.496729026E1
1.383546754E1,-1.387599472E1,-4.245920563E0,2.811154175E-1,1.451378988E1
1.384550654E1,-1.264226028E1,-3.518433380E0,7.562274170E-1,1.314450450E1
1.385554654E1,-1.111663284E1,-2.729873199E0,9.303153992E-1,1.148465151E1
1.386558554E1,-9.860445099E0,-2.089205475E0,9.650431824E-1,1.012543655E1
1.387562554E1,-8.983119507E0,-1.433868256E0,8.367599487E-1,9.135238446E0
1.388566454E1,-8.394393768E0,-9.952803040E-1,6.080355835E-1,8.475030200E0
1.389570354E1,-7.992928619E0,-6.783892822E-1,4.986131287E-1,8.037147192E0
1.390574354E1,-7.721093903E0,-5.601351929E-1,5.297483826E-1,7.759489406E0
1.391578254E1,-7.518714752E0,-3.793112183E-1,6.015989685E-1,7.552275806E0
1.392582154E1,-7.242988129E0,-1.692979431E-1,6.271957397E-1,7.272063897E0
1.393586154E1,-7.090305634E0,-9.684860229E-2,6.840774536E-1,7.123887674E0
1.394590054E1,-6.799759827E0,-1.206491089E-1,8.072712708E-1,6.848574802E0
1.395594054E1,-6.149811401E0,-1.284329224E-1,1.010099487E0,6.233536417E0
1.396597954E1,-5.487438812E0,-1.481918335E-2,1.132544861E0,5.603111831E0
1.397601854E1,-4.912484436E0,1.407073975E-1,1.084045715E0,5.032639170E0
1.398605854E1,-4.547393646E0,2.245330811E-1,8.403524780E-1,4.629837618E0
1.399609754E1,-4.363126831E0,4.029620361E-1,5.355862427E-1,4.414307054E0
1.400613654E1,-4.871020660E0,5.101391602E-1,2.522254944E-1,4.904151500E0
1.401617654E1,-6.151907043E0,3.550616455E-1,-1.362167358E-2,6.162159897E0
1.402621471E1,-7.034322052E0,2.616558838E-1,-6.721023560E-2,7.039507635E0
1.403625371E1,-7.909402313E0,1.639091492E-1,4.101470947E-2,7.911206821E0
1.404629371E1,-9.286987610E0,-2.067201233E-1,4.041595459E-2,9.289375949E0
1.405633271E1,-1.049512527E1,-6.408174133E-1,6.391708374E-2,1.051486504E1
1.406637271E1,-1.160566589E1,-1.178050232E0,-9.624984741E-2,1.166569960E1
1.407641171E1,-1.337199280E1,-1.832189941E0,-4.766088867E-1,1.350534218E1
1.408645071E1,-1.585667587E1,-2.744842072E0,-7.246430969E-1,1.610879994E1
1.409649071E1,-1.837683517E1,-4.010460205E0,-7.792794800E-1,1.882549172E1
1.410652971E1,-2.069311844E1,-5.376818848E0,-7.369175720E-1,2.139295162E1
1.411656871E1,-2.288935135E1,-6.623127136E0,-7.225474548E-1,2.383925949E1
1.412660871E1,-2.436977280E1,-7.583529968E0,-7.702981567E-1,2.553407747E1
1.413664771E1,-2.521626251E1,-8.292156372E0,-1.117426300E0,2.656818387E1
1.414668671E1,-2.599075195E1,-9.261690216E0,-1.747166748E0,2.764689285E1
1.415672671E1,-2.668455917E1,-1.023212219E1,-2.229463806E0,2.866587748E1
1.416676571E1,-2.766741531E1,-1.060260178E1,-2.304906921E0,2.971891032E1
1.417680571E1,-2.863425476E1,-1.027717850E1,-2.189945984E0,3.050142303E1
1.418684471E1,-2.901296722E1,-9.422156525E0,-2.583178253E0,3.061375688E1
1.419688371E1,-2.762295776E1,-7.855813751E0,-3.140319672E0,2.888950005E1
1.420692371E1,-2.384930511E1,-5.771098938E0,-2.933898926E0,2.471239973E1
1.421696271E1,-1.902244263E1,-3.591032410E0,-2.018103333E0,1.946333934E1
1.422700171E1,-1.400233200E1,-1.395248566E0,-9.448352051E-1,1.410335895E1
1.423704171E1,-9.860145721E0,4.002676392E-1,3.989204407E-1,9.876326511E0
1.424708071E1,-6.573280792E0,1.719025269E0,1.700014801E0,7.003793156E0
1.425712071E1,-3.616778870E0,3.005450134E0,2.528691559E0,5.339297791E0
1.426715971E1,-1.118773499E0,4.084406433E0,2.820734253E0,5.088277879E0
1.427719871E1,5.378315735E-1,4.402794342E0,3.037184143E0,5.375718402E0
1.428723871E1,1.751657410E0,4.207749939E0,3.263214111E0,5.605535618E0
1.429727771E1,2.541265411E0,3.785927124E0,3.170407104E0,5.553625418E0
1.430731671E1,2.658321991E0,3.100502472E0,2.669249268E0,4.879004308E0
1.431735671E1,2.294129333E0,2.441572723E0,1.503024445E0,3.671973481E0
1.432739571E1,1.681453400E0,1.901046753E0,1.689985657E-1,2.543585030E0
1.433743471E1,1.270857239E0,1.403631134E0,-8.554710388E-1,2.077760617E0
1.434747471E1,1.259929962E0,1.095871124E0,-1.485211487E0,2.234772962E0
1.435751371E1,1.278940430E0,9.324110413E-1,-1.803150330E0,2.399256152E0
1.436755371E1,1.128054199E0,8.526269531E-1,-1.855092316E0,2.332562217E0
1.437759271E1,7.623646545E-1,7.572752380E-1,-1.520987091E0,1.862274787E0
1.438763171E1,2.574645996E-1,7.920030212E-1,-9.512718201E-1,1.264308064E0
1.439767171E1,-3.204835510E-1,6.924600220E-1,-4.848417664E-1,9.040365739E-1
1.440771071E1,-7.337741089E-1,6.391708374E-1,1.336720276E-1,9.822586285E-1
1.441774971E1,-7.921527100E-1,6.337820435E-1,8.387059021E-1,1.316287653E0
1.442778971E1,-9.741741943E-1,5.370831299E-1,1.226699066E0,1.655978336E0
1.443782871E1,-1.196012878E0,4.114942932E-1,1.315614166E0,1.824997258E0
1.444786871E1,-9.886940002E-1,2.891986084E-1,1.282383270E0,1.644888602E0
1.445790771E1,-5.351371765E-1,4.147874451E-1,1.069525909E0,1.265822299E0
1.446794671E1,-2.924917603E-1,5.733078003E-1,7.240443420E-1,9.687484054E-1
1.447798671E1,-5.418731689E-1,6.997947693E-1,3.912863159E-1,9.677004864E-1
1.448802571E1,-9.725276184E-1,8.581654358E-1,7.589218140E-2,1.299237279E0
1.449806471E1,-1.455423431E0,9.669891357E-1,-3.841012573E-1,1.789094500E0
1.450810471E1,-1.871258698E0,1.104553070E0,-7.812254333E-1,2.309103674E0
1.451814371E1,-2.242187347E0,1.278042297E0,-8.240364075E-1,2.709212471E0
1.452818271E1,-2.554887085E0,1.310674438E0,-6.391708374E-1,2.941743507E0
1.453822271E1,-2.615061951E0,1.227148132E0,-3.737727356E-1,2.912756015E0
1.454826171E1,-2.373164978E0,9.511221313E-1,-1.125659180E-1,2.559143686E0
1.455830171E1,-2.127376099E0,4.480183411E-1,8.981323242E-2,2.175894280E0
1.456834071E1,-2.456391907E0,1.481918335E-2,3.495231628E-1,2.481178601E0
1.457837971E1,-3.616030426E0,-6.598278809E-1,7.698490906E-1,3.755491512E0
1.458841971E1,-5.555397491E0,-1.328337708E0,1.111289062E0,5.819096642E0
1.459845871E1,-8.025710449E0,-1.663939819E0,1.207239532E0,8.284814496E0
1.460849771E1,-1.143981079E1,-2.442321167E0,4.047583008E-1,1.170461588E1
1.461853771E1,-1.562046707E1,-3.420237579E0,-7.502398682E-1,1.600811908E1
1.462857671E1,-1.901914948E1,-4.494254150E0,-1.668580170E0,1.961403903E1
1.463861571E1,-2.102587646E1,-5.828729095E0,-2.317181396E0,2.194153353E1
1.464865571E1,-2.321447525E1,-7.975415039E0,-2.458188171E0,2.466904529E1
1.465869471E1,-2.661465454E1,-1.142050095E1,-2.329306183E0,2.905500552E1
1.466873471E1,-2.831496872E1,-1.399529663E1,-2.386337585E0,3.167491734E1
1.467877371E1,-2.826108078E1,-1.424108551E1,-2.251018982E0,3.172639737E1
1.468881271E1,-2.746728149E1,-1.234378098E1,-1.593735809E0,3.015560438E1
1.469885271E1,-2.482422775E1,-9.004375305E0,-9.316625977E-1,2.642326727E1
1.470889171E1,-2.162298477E1,-6.400839386E0,-5.004093933E-1,2.255603300E1
1.471893071E1,-1.933858521E1,-4.852309570E0,-2.011816406E-1,1.993906367E1
1.472897071E1,-1.773272461E1,-3.798201599E0,2.475851440E-1,1.813662471E1
1.473900971E1,-1.668086197E1,-2.993924103E0,5.837860107E-1,1.695746277E1
1.474904871E1,-1.583751572E1,-2.320324860E0,4.436773682E-1,1.601273434E1
1.475908871E1,-1.443178894E1,-1.528770905E0,1.236428833E-1,1.451306171E1
1.476912771E1,-1.234318222E1,-5.215155029E-1,-1.366658020E-1,1.235495056E1
1.477916771E1,-1.025996429E1,3.466790771E-1,-2.865042114E-1,1.026981686E1
1.478920671E1,-8.503666534E0,9.750723267E-1,-5.578898621E-1,8.577549281E0
1.479924571E1,-7.009024658E0,1.294957123E0,-6.234535217E-1,7.154860928E0
1.480928571E1,-6.058800659E0,1.372944946E0,-4.122427368E-1,6.226073187E0
1.481932471E1,-5.529052277E0,1.274898834E0,-1.616638184E-2,5.674156102E0
1.482936371E1,-4.877457275E0,9.987231445E-1,5.159770203E-1,5.005324133E0
1.483940371E1,-3.973786469E0,9.232800293E-1,8.653504944E-1,4.170402425E0
1.484944271E1,-3.401825867E0,9.937834167E-1,7.328759766E-1,3.618995980E0
1.485948271E1,-3.127446442E0,9.743238831E-1,3.546125793E-1,3.294841173E0
1.486952171E1,-3.088976440E0,9.861492920E-1,1.109193420E-1,3.244467441E0
1.487956071E1,-3.375780029E0,8.969348145E-1,-8.083190918E-2,3.493839817E0
1.488960071E1,-3.948489075E0,7.569758606E-1,-2.526745605E-1,4.028327551E0
1.489963971E1,-4.841382294E0,5.454656982E-1,-3.097059631E-1,4.881847307E0
1.490967871E1,-5.697302399E0,2.733316040E-1,-1.622625732E-1,5.706162803E0
1.491971871E1,-6.517446899E0,4.041595459E-3,-1.097218323E-1,6.518371676E0
1.492975771E1,-7.657176819E0,-3.794609070E-1,-2.215393066E-1,7.669773600E0
1.493979671E1,-9.253906403E0,-8.156538391E-1,-4.436773682E-1,9.300372278E0
1.494983671E1,-1.094239517E1,-1.104852448E0,-5.340893555E-1,1.101099280E1
1.495987571E1,-1.224079514E1,-1.268162842E0,-5.533992004E-1,1.231874804E1
1.496991571E1,-1.315284851E1,-1.508113861E0,-7.771838379E-1,1.326181911E1
1.497995471E1,-1.395039001E1,-1.812131653E0,-9.437873840E-1,1.409921761E1
1.498999371E1,-1.474493774E1,-2.268233185E0,-1.263672180E0,1.497180478E1
1.500003371E1,-1.548050812E1,-2.879861298E0,-1.663041687E0,1.583368057E1
1.501007271E1,-1.568273758E1,-3.396437073E0,-1.717678070E0,1.613798193E1
1.502011171E1,-1.526645325E1,-3.623065796E0,-1.348096619E0,1.574828768E1
1.503015183E1,-1.420800430E1,-3.461701355E0,-6.608757019E-1,1.463856274E1
1.504019083E1,-1.276769943E1,-3.004252625E0,1.950444031E-1,1.311783995E1
1.505022983E1,-1.188992477E1,-2.349364471E0,1.050515442E0,1.216525410E1
1.506026983E1,-1.100511475E1,-1.688189392E0,1.672472076E0,1.125876089E1
1.507030883E1,-9.694589996E0,-1.140777740E0,2.005529480E0,9.965369915E0
1.508034883E1,-8.251441040E0,-4.544549561E-1,1.740281067E0,8.445199035E0
1.509038783E1,-6.914870453E0,-3.397933960E-2,1.148112488E0,7.009618410E0
1.510042683E1,-5.905519409E0,6.721023560E-2,4.954696655E-1,5.926648876E0
1.511046683E1,-5.311404877E0,2.474354553E-1,6.451583862E-2,5.317556616E0
1.512050583E1,-5.219196625E0,2.180964661E-1,-2.106120300E-1,5.227995496E0
1.513054483E1,-5.302273865E0,2.933898926E-2,-3.724255371E-1,5.315418111E0
1.514058483E1,-5.607489166E0,6.721023560E-2,-5.167254639E-1,5.631647820E0
1.515062383E1,-6.238576813E0,2.574645996E-1,-7.420069885E-1,6.287821804E0
1.516066283E1,-6.459217987E0,3.237767029E-1,-8.731343079E-1,6.526001216E0
1.517070283E1,-6.533762970E0,3.100053406E-1,-8.896000671E-1,6.601329422E0
1.518074183E1,-6.337221680E0,2.206411743E-1,-9.593550110E-1,6.413222527E0
1.519078183E1,-5.802533569E0,1.766326904E-1,-9.978250122E-1,5.890352255E0
1.520082083E1,-5.322631531E0,2.579136658E-1,-1.079105988E0,5.437039231E0
1.521085983E1,-5.039869537E0,3.110531616E-1,-1.284778290E0,5.210344929E0
1.522089983E1,-4.994513855E0,4.749623108E-1,-1.554068298E0,5.252226777E0
1.523093883E1,-5.612728271E0,4.727169800E-1,-1.803300018E0,5.914226150E0
1.524097783E1,-6.598278809E0,4.281097412E-1,-2.229463806E0,6.977898684E0
1.525101783E1,-7.973618774E0,6.240522766E-1,-2.774181061E0,8.465466211E0
1.526105683E1,-1.033301239E1,7.705975342E-1,-3.000510406E0,1.078740137E1
1.527109583E1,-1.230531097E1,4.382885742E-1,-2.864892426E0,1.264200869E1
1.528113583E1,-1.349698288E1,-3.381468201E-1,-2.460732880E0,1.372363277E1
1.529117483E1,-1.493429398E1,-1.351240082E0,-2.061962128E0,1.513640228E1
1.530121483E1,-1.682815567E1,-2.865191803E0,-1.856738892E0,1.717101123E1
1.531125383E1,-1.922721680E1,-4.700375519E0,-1.772913208E0,1.987266004E1
1.532129283E1,-2.264056870E1,-6.624923401E0,-1.909429321E0,2.366708434E1
1.533133283E1,-2.602173752E1,-8.453670502E0,-1.970652008E0,2.743134772E1
1.534137183E1,-2.792398178E1,-9.814939728E0,-1.733395386E0,2.964939224E1
1.535141083E1,-2.878753601E1,-1.078222824E1,-1.675914917E0,3.078615543E1
1.536145083E1,-2.858695312E1,-1.142484192E1,-2.108215942E0,3.085750276E1
1.537148983E1,-2.764885391E1,-1.139804764E1,-2.616409149E0,3.002032994E1
1.538152883E1,-2.688723770E1,-1.054557037E1,-3.029100952E0,2.903976684E1
1.539156883E1,-2.609134277E1,-9.100475464E0,-3.238216095E0,2.782198528E1
1.540160783E1,-2.434387665E1,-7.360044708E0,-3.391347656E0,2.565727630E1
1.541164783E1,-2.156400742E1,-5.584437103E0,-3.712579651E0,2.258263938E1
1.542168683E1,-1.849344269E1,-3.591182098E0,-3.695814514E0,1.919799615E1
1.543172583E1,-1.526630356E1,-1.233285370E0,-2.951113129E0,1.559775900E1
1.544176583E1,-1.158830200E1,1.117276611E0,-1.541494446E0,1.174364745E1
1.545180483E1,-7.823630676E0,3.181334381E0,1.218466187E-1,8.446592923E0
1.546184383E1,-4.471202087E0,4.561763763E0,1.890418854E0,6.661457812E0
1.547188383E1,-2.254910889E0,5.079237671E0,3.767515411E0,6.713974293E0
1.548192283E1,-1.177750854E0,4.851561127E0,5.281018066E0,7.267316854E0
1.549196183E1,-8.360115051E-1,4.055815887E0,6.016588440E0,7.303964280E0
1.550200183E1,-6.201603699E-1,3.290756836E0,6.120173035E0,6.976402899E0
1.551204083E1,-1.984872437E-1,2.671793976E0,5.625302124E0,6.230722608E0
1.552208083E1,3.052153015E-1,2.097887421E0,4.423002319E0,4.904817787E0
1.553211983E1,7.286846924E-1,1.622775421E0,2.915936279E0,3.415708687E0
1.554215883E1,7.232958984E-1,1.249451752E0,1.339115295E0,1.969141034E0
1.555219883E1,1.996847534E-1,9.855505371E-1,-2.832110596E-1,1.044697261E0
1.556223783E1,-3.757186890E-2,7.598199463E-1,-1.575324097E0,1.749395326E0
1.557227683E1,2.198927307E-1,6.460565186E-1,-2.350561981E0,2.447628131E0
1.558231683E1,6.601272583E-1,4.546046448E-1,-2.711461487E0,2.827447042E0
1.559235583E1,1.207688599E0,2.797682190E-1,-2.505639496E0,2.795534169E0
1.560239483E1,1.521136780E0,2.787203979E-1,-2.060764618E0,2.576488497E0
1.561243483E1,1.508413239E0,2.484832764E-1,-1.631457367E0,2.235778964E0
1.562247383E1,1.232087860E0,2.436932373E-1,-1.153800659E0,1.705486104E0
1.563251383E1,7.126679993E-1,2.929408264E-1,-6.521937561E-1,1.009488336E0
1.564255283E1,6.945556641E-2,3.418890381E-1,-3.303630066E-1,4.804705050E-1
1.565259183E1,-6.481521606E-1,3.335064697E-1,-2.381547546E-1,7.668412325E-1
1.566263183E1,-1.268013153E0,5.536985779E-1,-1.725910950E-1,1.394355463E0
1.567267083E1,-1.318907318E0,8.822653198E-1,-7.873626709E-2,1.588744161E0
1.568270983E1,-8.674461365E-1,1.042282562E0,-6.975494385E-2,1.357822334E0
1.569274983E1,-3.724255371E-1,1.095871124E0,-9.699829102E-2,1.161483091E0
1.570278883E1,-3.921844482E-2,1.198856964E0,-6.167175293E-2,1.201082642E0
1.571282883E1,2.754272461E-2,1.304088135E0,6.271957397E-2,1.305885987E0
1.572286783E1,-1.278341675E-1,1.305135956E0,1.737886047E-1,1.322846898E0
1.573290683E1,-6.312373352E-1,1.157243500E0,4.746629333E-1,1.401063165E0
1.574294683E1,-1.134341125E0,1.258433075E0,9.532177734E-1,1.943967005E0
1.575298583E1,-1.564995575E0,1.393751678E0,1.158890076E0,2.394740299E0
1.576302483E1,-2.294877777E0,1.180894318E0,1.023272095E0,2.776339529E0
1.577306483E1,-3.058439941E0,8.646020508E-1,1.083147583E0,3.357796937E0
1.578310383E1,-3.290158081E0,6.780899048E-1,1.002165985E0,3.505607334E0
1.579314283E1,-3.880680084E0,2.857557678E-1,5.920188904E-1,3.935965020E0
1.580318283E1,-5.173691254E0,-4.975653076E-1,6.512956238E-1,5.238209466E0
1.581322183E1,-7.101532288E0,-1.766925659E0,7.271878052E-1,7.354086566E0
1.582326183E1,-9.976304169E0,-3.151097260E0,-1.125659180E-1,1.046273052E1
1.583330083E1,-1.463072525E1,-4.701573029E0,-1.087787933E0,1.540604404E1
1.584333983E1,-1.951940918E1,-6.264772339E0,-1.325792999E0,2.054294123E1
1.585337983E1,-2.278816177E1,-7.440726929E0,-1.453776855E0,2.401620706E1
1.586341883E1,-2.607637390E1,-9.262887726E0,-1.738185425E0,2.772723667E1
1.587345783E1,-3.018802368E1,-1.233285370E1,-1.901346130E0,3.266544307E1
1.588349783E1,-3.280054092E1,-1.491498413E1,-1.756148071E0,3.607514785E1
1.589353683E1,-3.308764389E1,-1.576880859E1,-1.372346191E0,3.667875184E1
1.590357583E1,-3.119168655E1,-1.416833679E1,-6.911128235E-1,3.426573674E1
1.591361583E1,-2.662887497E1,-1.087084396E1,-2.682421875E-1,2.876359130E1
1.592365483E1,-2.158960419E1,-7.849377136E0,-1.308279419E-1,2.297261079E1
1.593369483E1,-1.800141586E1,-5.805976410E0,-2.251318359E-1,1.891589330E1
1.594373383E1,-1.584784424E1,-4.184248810E0,-9.442364502E-1,1.641809025E1
1.595377283E1,-1.499192413E1,-3.082689514E0,-1.894161072E0,1.542234126E1
1.596381283E1,-1.409918060E1,-2.149380341E0,-2.634671173E0,1.450338656E1
1.597385183E1,-1.229632965E1,-9.304650879E-1,-3.468587036E0,1.281001890E1
1.598389083E1,-1.008497818E1,2.969824219E-1,-4.278403015E0,1.095900159E1
1.599393083E1,-7.905061340E0,1.159937897E0,-4.525539093E0,9.182371959E0
1.600396983E1,-6.027964783E0,1.773511963E0,-4.089196472E0,7.496881478E0
1.601400883E1,-4.798421631E0,2.022144928E0,-3.115920410E0,6.068185912E0
1.602404904E1,-5.142556000E0,1.750010834E0,-1.999541931E0,5.788487545E0
1.603408804E1,-5.622757416E0,1.523531799E0,-7.650590515E-1,5.875531078E0
1.604412804E1,-4.465813293E0,1.562151489E0,2.189945984E-1,4.736218352E0
1.605416704E1,-3.201991425E0,1.520837402E0,5.851332092E-1,3.592781146E0
1.606420604E1,-2.966381378E0,1.307081909E0,4.767585754E-1,3.276458505E0
1.607424604E1,-2.593506775E0,1.415456543E0,4.775070190E-2,2.955008417E0
1.608428504E1,-2.473456421E0,1.329535217E0,-7.030879211E-1,2.894820061E0
1.609432404E1,-3.094963989E0,8.205935669E-1,-9.717791748E-1,3.346121734E0
1.610436404E1,-4.004921722E0,4.179309082E-1,-6.704557800E-1,4.082104261E0
1.611440304E1,-4.586761780E0,4.640350342E-2,-4.578977966E-1,4.609794714E0
1.612444204E1,-6.179150391E0,-8.355624390E-1,-1.246907043E-1,6.236634662E0
1.613448204E1,-9.055119781E0,-1.842368774E0,5.887257385E-1,9.259379836E0
1.614452104E1,-1.187510559E1,-3.128643951E0,1.212927704E0,1.234008668E1
1.615456104E1,-1.512484772E1,-4.571194153E0,1.358275452E0,1.585880660E1
1.616460004E1,-1.847293533E1,-5.831573181E0,1.182391205E0,1.940759219E1
1.617463904E1,-2.044238983E1,-6.453978882E0,3.960763550E-1,2.144066281E1
1.618467904E1,-2.037952057E1,-5.964945831E0,-7.806266785E-1,2.124887798E1
1.619471804E1,-1.895747772E1,-5.195845184E0,-1.692979431E0,1.972939300E1
1.620475704E1,-1.678070435E1,-4.792583771E0,-2.025288391E0,1.756879878E1
1.621479704E1,-1.406041122E1,-4.516557770E0,-1.656605072E0,1.486064596E1
1.622483604E1,-1.111857880E1,-4.079317017E0,-8.146060181E-1,1.187127646E1
1.623487504E1,-8.388106842E0,-3.672912140E0,2.389031982E-1,9.160114340E0
1.624491504E1,-6.173462219E0,-3.206182709E0,1.246907043E0,7.067249855E0
1.625495404E1,-4.936883698E0,-2.824177094E0,1.603166199E0,5.909224886E0
1.626499404E1,-4.813240814E0,-2.516117706E0,1.372645569E0,5.601989942E0
1.627503304E1,-4.809498596E0,-2.196232910E0,9.716294861E-1,5.375758514E0
1.628507204E1,-5.198838959E0,-1.743574219E0,1.311273193E-1,5.484995164E0
1.629511204E1,-5.689967651E0,-1.140328674E0,-1.003812561E0,5.889288668E0
1.630515104E1,-5.651497650E0,-7.403604126E-1,-1.904489594E0,6.009545727E0
1.631519004E1,-5.309159546E0,-4.725672913E-1,-2.419718170E0,5.853676704E0
1.632523004E1,-5.063370667E0,-4.989125061E-1,-2.678529968E0,5.749883389E0
1.633526904E1,-4.828359375E0,-3.562591553E-1,-2.385888519E0,5.397447440E0
1.634530804E1,-4.631967773E0,-3.128494263E-1,-1.610201569E0,4.913832446E0
1.635534804E1,-4.742587738E0,-6.262976074E-1,-8.333171082E-1,4.855801123E0
1.636538704E1,-4.680317230E0,-8.837622070E-1,-1.175056458E-1,4.764474010E0
1.637542704E1,-4.148024139E0,-9.642947388E-1,4.926255798E-1,4.287032606E0
1.638546604E1,-4.317621460E0,-1.089733887E0,8.565188599E-1,4.534644371E0
1.639550504E1,-5.458848267E0,-1.235979767E0,5.727090454E-1,5.626247953E0
1.640554504E1,-5.993536377E0,-1.115480347E0,-2.276765442E-1,6.100705805E0
1.641558404E1,-6.141279144E0,-1.266216888E0,-1.506616974E0,6.448915369E0
1.642562304E1,-6.549330597E0,-1.455573120E0,-2.518363037E0,7.166210767E0
1.643566304E1,-7.310048676E0,-1.219663696E0,-2.965632935E0,7.982441348E0
