"Time (s)","Acceleration x (m/s^2)","Acceleration y (m/s^2)","Acceleration z (m/s^2)","Absolute acceleration (m/s^2)"
-2.417041673E-3,-2.742896118E0,1.168619843E0,7.769143982E0,8.321583363E0
7.621958328E-3,-3.695964203E0,5.707630920E-1,8.069419556E0,8.893899812E0
1.766195833E-2,-7.376959534E0,2.863545227E-1,9.122330017E0,1.173534984E1
2.770095833E-2,-8.001610565E0,6.527925110E-1,8.906029816E0,1.199038268E1
3.773995833E-2,-7.417674866E0,1.158441010E0,8.744515686E0,1.152520892E1
4.777895833E-2,-6.876101074E0,1.069226532E0,9.600286102E0,1.185704451E1
5.781895833E-2,-6.734046478E0,5.794450378E-1,9.025032349E0,1.127538680E1
6.785795833E-2,-6.562353516E0,-9.849517822E-2,7.781717834E0,1.017984860E1
7.789695833E-2,-5.762566681E0,-1.075513458E0,6.829697571E0,9.000481813E0
8.793695833E-2,-4.949906616E0,-1.793869629E0,6.311475220E0,8.219140053E0
9.797595833E-2,-4.728666687E0,-1.667981415E0,5.729036407E0,7.613429503E0
1.080149583E-1,-4.683161316E0,-1.584455109E0,5.739215240E0,7.575030659E0
1.180539583E-1,-5.175936584E0,-2.590812378E0,5.926924896E0,8.284386944E0
1.280939583E-1,-4.993915100E0,-4.301305389E0,6.568041687E0,9.304815295E0
1.381329583E-1,-3.712879028E0,-5.679788818E0,7.524402924E0,1.013223130E1
1.481719583E-1,-3.379522247E0,-5.899382172E0,7.824079742E0,1.036533185E1
1.582119583E-1,-3.707939301E0,-5.379812622E0,7.450157318E0,9.909391594E0
1.682509583E-1,-2.969075775E0,-5.303621063E0,6.324198761E0,8.771504849E0
1.782899583E-1,-1.730551300E0,-5.224735107E0,4.832999725E0,7.324653650E0
1.883289583E-1,-1.326691132E0,-4.794829102E0,3.141666870E0,5.883924387E0
1.983689583E-1,-1.764081573E0,-4.700824585E0,2.418969727E0,5.573253100E0
2.084079583E-1,-3.140768738E0,-4.763244781E0,4.067192230E0,7.006781126E0
2.184469583E-1,-3.903432770E0,-4.205504608E0,7.094646606E0,9.124531049E0
2.284859583E-1,-4.152664490E0,-3.735182648E0,9.419911194E0,1.095129849E1
2.385265833E-1,-4.683610382E0,-3.590733032E0,1.147349075E1,1.290234707E1
2.485655833E-1,-4.598138123E0,-3.120411072E0,1.223106537E1,1.343423982E1
2.586045833E-1,-5.306614838E0,-2.512525177E0,1.230650848E1,1.363536193E1
2.686445833E-1,-7.070995789E0,-1.920206909E0,1.366134109E1,1.550220683E1
2.786835833E-1,-8.401578827E0,-1.116977234E0,1.343097015E1,1.588159703E1
2.887225833E-1,-1.233210526E1,-7.517367554E-1,1.202659058E1,1.724194911E1
2.987615833E-1,-1.651605469E1,5.460644531E-1,1.034259247E1,1.949480617E1
3.088015833E-1,-1.973945160E1,2.211650848E0,8.193661194E0,2.148658727E1
3.188405833E-1,-2.344469650E1,4.332740021E0,5.838159485E0,2.454609004E1
3.288795833E-1,-2.504516830E1,6.187083893E0,3.696862335E0,2.606160497E1
3.389195833E-1,-2.478261429E1,7.444618835E0,2.961890717E0,2.604559689E1
3.489585833E-1,-2.359588211E1,7.468119965E0,3.179837494E0,2.495295243E1
3.589975833E-1,-2.132240982E1,6.640640717E0,2.987487488E0,2.253149687E1
3.690365833E-1,-1.940983704E1,5.594166870E0,2.818039856E0,2.039553445E1
3.790765833E-1,-1.784798492E1,4.738546143E0,2.487227783E0,1.863305363E1
3.891155833E-1,-1.655721909E1,4.195625153E0,1.099164276E0,1.711586797E1
3.991545833E-1,-1.587463852E1,3.470233612E0,-3.692820740E-1,1.625370846E1
4.091945833E-1,-1.503997421E1,2.796334991E0,-1.237027588E0,1.534765620E1
4.192335833E-1,-1.367960312E1,2.157463531E0,-2.281106415E0,1.403529967E1
4.292725833E-1,-1.200009567E1,1.680555267E0,-2.988235931E0,1.248022901E1
4.393115833E-1,-1.016595978E1,1.009500732E0,-2.924767914E0,1.062638684E1
4.493515833E-1,-8.665180664E0,2.556683350E-1,-1.757794647E0,8.845369651E0
4.593905833E-1,-7.668852539E0,-4.201762390E-1,-1.718576202E0,7.870282809E0
4.694295833E-1,-6.872957611E0,-1.102906494E0,-2.367177429E0,7.352379073E0
4.794695833E-1,-6.771318970E0,-1.678759003E0,-3.211870880E0,7.680176230E0
4.895085833E-1,-7.155869293E0,-2.269281006E0,-3.854484558E0,8.438788588E0
4.995475833E-1,-7.682174835E0,-2.647544403E0,-3.838916931E0,8.986800586E0
5.095865833E-1,-7.859555969E0,-2.628983002E0,-3.903133392E0,9.160710777E0
5.196265833E-1,-7.644153900E0,-1.775607605E0,-3.455713806E0,8.574836974E0
5.296655833E-1,-8.414002991E0,-1.113235016E0,-1.373094635E0,8.597681513E0
5.397045833E-1,-1.112980545E1,-9.084608459E-1,-2.275268555E-1,1.116913779E1
5.497435833E-1,-1.140193954E1,-2.643502808E-1,1.874102783E-1,1.140654326E1
5.597835833E-1,-1.032612671E1,-6.935078430E-1,1.281634827E0,1.042844350E1
5.698225833E-1,-8.769364014E0,-1.172212372E0,2.318528595E0,9.146114032E0
5.798615833E-1,-7.722740479E0,-1.235381012E0,3.854634247E0,8.719236889E0
5.899015833E-1,-8.737330627E0,-2.010319519E0,6.101611633E0,1.084490644E1
5.999405833E-1,-8.407117310E0,-2.770289154E0,2.750230865E0,9.269190540E0
6.099795833E-1,-5.797444153E0,-1.975292358E0,-3.960314484E0,7.293574529E0
6.200195833E-1,-3.131488037E0,2.182162170E0,-1.132005981E1,1.194620455E1
6.300585833E-1,-6.752757568E0,2.017354889E0,-6.695127411E0,9.720812033E0
6.400975833E-1,-1.041040146E1,1.857936401E0,-3.752546539E0,1.122096216E1
6.501365833E-1,-1.127859604E1,4.470753021E0,-3.931723938E0,1.275354125E1
6.601765833E-1,-1.209859085E1,2.668351135E0,-1.969903564E0,1.254497981E1
6.702155833E-1,-1.235470825E1,1.586700439E-2,2.455044708E0,1.259628168E1
6.802545833E-1,-1.132859207E1,-4.116739197E0,1.324296112E1,1.790699749E1
6.902935833E-1,-7.841293945E0,-5.578000488E0,8.917106781E0,1.311925202E1
7.003335833E-1,-4.520150299E0,-6.687792664E0,6.843768311E0,1.058279236E1
7.103725833E-1,-3.965104523E0,-7.899073792E0,5.040019226E0,1.017443927E1
7.204115833E-1,-7.272925873E0,-9.586664429E0,4.996310120E0,1.302930161E1
7.304515833E-1,-1.104059097E1,-1.309222458E1,4.049229584E0,1.759821734E1
7.404905833E-1,-1.711885117E1,-1.630858612E1,3.772155762E-2,2.364374060E1
7.505295833E-1,-2.070329727E1,-1.458342361E1,-2.014211426E0,2.540393296E1
7.605685833E-1,-1.943438599E1,-1.152004395E1,-2.518662415E0,2.273214533E1
7.706085833E-1,-1.609213623E1,-6.390510864E0,-3.428470459E0,1.765077583E1
7.806475833E-1,-1.313728088E1,-4.288581848E0,-4.678221588E0,1.458992257E1
7.906865833E-1,-6.924001465E0,-2.484683075E0,-6.179000702E0,9.607054488E0
8.007265833E-1,-1.620679779E0,-5.143304443E-1,-7.883805542E0,8.065080816E0
8.107655833E-1,2.631527710E-1,6.417155457E-1,-1.032702484E1,1.035028938E1
8.208045833E-1,6.747967529E-1,1.296753387E0,-1.351958588E1,1.359838675E1
8.308445833E-1,-2.570754089E0,8.954379272E-1,-1.598959946E1,1.621967560E1
8.408835833E-1,-1.647773438E0,-4.519102478E-1,-1.248553619E1,1.260190439E1
8.509225833E-1,1.185384979E0,-2.361189880E0,-5.738766174E0,6.317736335E0
8.609615833E-1,4.999603271E-1,-3.854933624E0,-1.215023346E0,4.072684042E0
8.710015833E-1,-1.712438965E-1,-4.597539368E0,-4.760101318E-2,4.600973654E0
8.810405833E-1,-6.020480347E-1,-5.387746124E0,4.462220764E-1,5.439612512E0
8.910795833E-1,-6.881190491E-1,-5.705235901E0,6.112239532E0,8.389439589E0
9.011185833E-1,-2.097288666E0,-4.891677704E0,1.020233414E1,1.150716092E1
9.111585833E-1,-6.235433350E0,-6.737489319E0,5.273084564E0,1.058677534E1
9.211975833E-1,-1.064167053E1,-9.188492432E0,5.099894714E-1,1.406888887E1
9.312365833E-1,-1.395652725E1,-9.849966888E0,-2.882555695E0,1.732384565E1
9.412765833E-1,-1.547960999E1,-1.030127838E1,-4.575385437E0,1.914859821E1
9.513155833E-1,-1.466694992E1,-1.061637314E1,-4.739444275E0,1.871601268E1
9.613545833E-1,-1.328008392E1,-1.010099487E1,-4.292922821E0,1.722846229E1
9.713945833E-1,-1.274449768E1,-8.101003876E0,-2.393822021E0,1.528982893E1
9.814335833E-1,-1.068418213E1,-6.678661652E0,-1.397493896E0,1.267711554E1
9.914725833E-1,-7.275470581E0,-7.472610626E0,-1.047671356E0,1.048188900E1
1.001511583E0,-4.872517548E0,-8.477920074E0,-1.298998718E0,9.864276644E0
1.011551583E0,-4.473896484E0,-8.899144135E0,-2.592458954E0,1.029229612E1
1.021590583E0,-5.586233368E0,-8.333320770E0,-3.166664886E0,1.052036144E1
1.031629583E0,-7.303612061E0,-7.200027466E0,-2.486179962E0,1.055292544E1
1.041669583E0,-7.870782623E0,-6.873556366E0,-2.386936340E0,1.071879010E1
1.051708583E0,-8.177943878E0,-6.863078156E0,-2.381248169E0,1.093850770E1
1.061747583E0,-8.893455963E0,-6.028563538E0,-1.946701813E0,1.091910185E1
1.071786583E0,-8.388106842E0,-5.715265045E0,-1.895059204E0,1.032549468E1
1.081826583E0,-7.371720428E0,-5.788462830E0,-2.398462372E0,9.674770579E0
1.091865583E0,-6.882537689E0,-5.044210510E0,-3.776646423E0,9.331475924E0
1.101904583E0,-6.564598846E0,-4.047583008E0,-4.649181976E0,9.005097405E0
1.111944583E0,-6.396797791E0,-3.819457397E0,-3.608545990E0,8.278217256E0
1.121983583E0,-6.505172424E0,-3.774251404E0,-1.985770569E0,7.778529853E0
1.132022583E0,-6.207291870E0,-3.715274048E0,-3.683839417E-1,7.243579249E0
1.142061583E0,-6.020929413E0,-3.432961121E0,1.443448334E0,7.079573161E0
1.152101583E0,-6.018235016E0,-3.745810547E0,2.714904327E0,7.590846782E0
1.162140583E0,-5.980962524E0,-3.971241760E0,1.777553558E0,7.396105089E0
1.172179583E0,-6.521039429E0,-3.195255432E0,6.795867920E-1,7.293521147E0
1.182219583E0,-7.425907745E0,-3.026107178E0,2.706372070E-1,8.023383014E0
1.192258583E0,-7.313192139E0,-3.389551392E0,8.098159790E-2,8.060917808E0
1.202297583E0,-5.696703644E0,-4.175566864E0,3.894900513E-1,7.073859876E0
1.212336583E0,-3.754193115E0,-5.849535828E0,1.236728210E0,7.059782717E0
1.222376583E0,-2.243534546E0,-6.872957611E0,8.539741516E-1,7.280128119E0
1.232415583E0,-1.571881256E0,-7.264243927E0,-1.672023010E-1,7.434245565E0
1.242453833E0,-1.463656311E0,-8.669521637E0,-3.881428528E-1,8.800769858E0
1.252493833E0,-1.158441010E0,-9.826914825E0,1.405577087E-1,9.895958621E0
1.262532833E0,-7.523355103E-1,-1.060230240E1,1.686243439E0,1.076188839E1
1.272571833E0,-8.704399109E-1,-1.160791122E1,2.914289703E0,1.199976471E1
1.282611833E0,-2.226320343E0,-1.203003342E1,3.534599762E0,1.273466143E1
1.292650833E0,-3.083138580E0,-1.155671768E1,4.778513031E0,1.288012631E1
1.302689833E0,-2.547702026E0,-8.847800903E0,3.424129486E0,9.823391939E0
1.312728833E0,-3.120411072E0,-7.339836731E0,3.347788239E0,8.649731475E0
1.322768833E0,-1.418001251E0,-5.844446411E0,2.929258575E0,6.689457168E0
1.332807833E0,-3.445834351E-1,-3.850442963E0,2.317780151E0,4.507410962E0
1.342846833E0,-1.793270874E-1,-3.426674194E0,1.691033478E0,3.825421344E0
1.352886833E0,3.655398560E-1,-3.294049988E0,1.040635986E0,3.473803098E0
1.362925833E0,7.565267944E-1,-3.667822723E0,8.164022827E-1,3.832984347E0
1.372964833E0,1.368603973E0,-3.943998413E0,-9.026229858E-2,4.175685285E0
1.383003833E0,2.170935516E0,-5.028193817E0,-3.111280060E0,6.298869556E0
1.393043833E0,2.128723297E0,-5.114414520E0,-5.711373138E0,7.956662736E0
1.403082833E0,1.799557800E0,-4.959786072E0,-7.102131042E0,8.847494080E0
1.413121833E0,1.211730194E0,-5.634433136E0,-9.453291779E0,1.107157858E1
1.423161833E0,6.971003723E-1,-6.336772614E0,-8.747060394E0,1.082366396E1
1.433200833E0,1.203946381E0,-9.811945953E0,-8.287216644E0,1.289967945E1
1.443239833E0,2.446362762E0,-2.342882950E1,-1.128263763E1,2.611881801E1
1.453278833E0,6.664291534E0,-4.717320282E1,-1.010398865E1,4.870127752E1
1.463318833E0,1.108280319E1,-5.033492798E1,-3.323089600E-2,5.154061123E1
1.473357833E0,6.218668213E0,-3.315021378E1,3.015928345E0,3.386302307E1
1.483396833E0,2.419568481E0,-1.662338150E1,1.307680664E0,1.684936654E1
1.493436833E0,6.993457031E-1,-1.042522064E1,-1.472937012E-1,1.044968924E1
1.503475833E0,2.070195007E-1,-7.232360229E0,-3.264710999E-1,7.242684236E0
1.513514833E0,1.960473175E0,-5.796995087E0,1.145567780E0,6.225827868E0
1.523554833E0,3.573668518E0,-6.126310272E0,2.187401276E0,7.422095969E0
1.533593833E0,4.305796051E0,-6.907386017E0,2.281405792E0,8.453204931E0
1.543632833E0,4.563110962E0,-7.805518341E0,2.563419342E0,9.397830438E0
1.553671833E0,4.474345551E0,-8.578361206E0,3.141966248E0,1.017251203E1
1.563711833E0,4.537364502E0,-9.237740021E0,3.671115875E0,1.092705857E1
1.573750833E0,4.526437225E0,-9.407037964E0,3.842060394E0,1.112395727E1
1.583789833E0,4.432133331E0,-9.531578979E0,3.627556458E0,1.111998065E1
1.593829833E0,3.930077362E0,-9.448651428E0,2.955304413E0,1.065158890E1
1.603868833E0,3.410507812E0,-9.288933563E0,2.073637848E0,1.011018418E1
1.613907833E0,2.545007629E0,-9.105415192E0,1.081501007E0,9.516054543E0
1.623947833E0,2.003433838E0,-9.153764648E0,1.013392639E-1,9.370988423E0
1.633986833E0,1.766476593E0,-9.294022980E0,-7.421566772E-1,9.489473075E0
1.644025833E0,1.563049622E0,-9.467661896E0,-1.671873322E0,9.740375059E0
1.654064833E0,1.452579346E0,-9.775272217E0,-2.608325958E0,1.022102235E1
1.664104833E0,9.216334534E-1,-9.739646301E0,-3.012784882E0,1.023655172E1
1.674143833E0,6.352789307E-1,-9.707612915E0,-3.155887299E0,1.022746070E1
1.684182833E0,7.397616577E-1,-9.826016693E0,-3.169658661E0,1.035106697E1
1.694222833E0,8.276289368E-1,-1.012165192E1,-2.466121674E0,1.045057717E1
1.704261833E0,8.858578491E-1,-1.041459274E1,-1.184486847E0,1.051910145E1
1.714300833E0,1.163680115E0,-1.030502060E1,-1.207987976E-1,1.037121947E1
1.724339833E0,1.513502655E0,-1.040381516E1,6.027964783E-1,1.053059465E1
1.734379833E0,2.153122559E0,-1.054751633E1,7.273374939E-1,1.078958096E1
1.744418833E0,2.483635254E0,-1.037073395E1,4.523593140E-1,1.067357464E1
1.754457833E0,2.535427551E0,-1.006057892E1,3.601510620E-1,1.038139441E1
1.764497833E0,2.514920197E0,-9.592202911E0,5.183720398E-1,9.929949137E0
1.774536833E0,2.794987793E0,-9.323212280E0,7.173083496E-1,9.759547902E0
1.784575833E0,3.222798157E0,-9.369466095E0,9.301657104E-1,9.951810444E0
1.794614833E0,3.123404846E0,-9.444909210E0,9.879455566E-1,9.996899732E0
1.804654833E0,2.173929291E0,-9.338630219E0,1.589095459E0,9.719115561E0
1.814693833E0,6.146218872E-1,-9.276210022E0,2.638563080E0,9.663738798E0
1.824732833E0,2.299218750E-1,-9.545949097E0,1.937121735E0,9.743225792E0
1.834772833E0,-1.091230774E-1,-9.877659302E0,-5.837860107E-2,9.878434552E0
1.844811833E0,4.909790039E-2,-9.773326263E0,-1.961520996E0,9.968343968E0
1.854850833E0,4.629872131E-1,-9.553433533E0,-2.950664062E0,1.000943894E1
1.864890833E0,1.950444031E-1,-9.408235474E0,-2.748733978E0,9.803493027E0
1.874929833E0,2.245330811E-3,-9.523346100E0,-1.704206085E0,9.674628900E0
1.884968833E0,-2.188449097E-1,-9.701176300E0,-4.715194702E-1,9.715093685E0
1.895007833E0,-1.299298096E-1,-9.877659302E0,3.463796997E-1,9.884584662E0
1.905047833E0,1.131497040E0,-1.007988876E1,7.349716187E-1,1.016978989E1
1.915086833E0,2.174378357E0,-9.952353973E0,9.610015869E-1,1.023234064E1
1.925125833E0,2.484683075E0,-9.771230621E0,9.726773071E-1,1.012900286E1
1.935165833E0,2.227966919E0,-9.715845795E0,8.029302979E-1,1.000030965E1
1.945204833E0,1.797911224E0,-9.574090576E0,5.557942200E-1,9.757284579E0
1.955243833E0,1.577419739E0,-9.391170959E0,3.511697388E-1,9.529200659E0
1.965283833E0,1.696272583E0,-9.200168152E0,2.496807861E-1,9.358566941E0
1.975322833E0,1.555415497E0,-9.141939240E0,2.318678284E-1,9.276213296E0
1.985361833E0,1.608554993E0,-9.256451111E0,-5.837860107E-3,9.395178040E0
1.995400833E0,1.328188019E0,-9.435927887E0,-2.634521484E-1,9.532587557E0
2.005440833E0,9.425898743E-1,-9.630822601E0,-4.020639038E-1,9.685188436E0
2.015479833E0,9.466314697E-1,-9.764494629E0,-4.230203247E-1,9.819389629E0
2.025518833E0,1.034947815E0,-1.009366013E1,-2.357597351E-1,1.014931891E1
2.035558833E0,1.071621552E0,-1.019155655E1,-1.609153748E-1,1.024900441E1
2.045597833E0,3.379971313E-1,-9.723330231E0,-2.731819153E-1,9.733037614E0
2.055636833E0,-8.232879639E-2,-9.494456177E0,-2.818638611E-1,9.498995913E0
2.065675833E0,1.053808594E-1,-9.491911469E0,-4.011657715E-2,9.492581198E0
2.075715833E0,8.135581970E-1,-9.819879456E0,4.492158508E-1,9.863757111E0
2.085754833E0,2.800675964E-1,-9.186097412E0,4.227209473E-1,9.200082419E0
2.095793833E0,4.773573303E-1,-9.135203247E0,-8.397537231E-2,9.148052265E0
2.105833833E0,5.638774109E-1,-9.499545593E0,-8.497828674E-1,9.554132882E0
2.115872833E0,6.686595154E-1,-9.654473419E0,-1.287921753E0,9.762925022E0
2.125911833E0,1.087787933E0,-9.576635284E0,-1.190773773E0,9.711496699E0
2.135950833E0,1.810335388E0,-9.851763153E0,-1.160836029E0,1.008375385E1
2.145990833E0,2.387535095E0,-1.048943710E1,-8.390052795E-1,1.079039130E1
2.156029833E0,2.785407715E0,-1.143786484E1,-8.550219727E-1,1.180314834E1
2.166068833E0,1.779349823E0,-1.141331589E1,-1.130898285E0,1.160641186E1
2.176108833E0,6.698719940E0,-1.475826004E1,-1.894460449E0,1.631772253E1
2.186147833E0,9.553583221E0,-1.725402008E1,-1.887874146E0,1.981252710E1
2.196186833E0,3.965852966E0,-1.530552200E1,-1.919608154E0,1.592708037E1
2.206226833E0,6.424639893E-1,-1.213152237E1,-1.183888092E0,1.220607169E1
2.216265833E0,-1.477427673E0,-9.151070251E0,-3.818559265E-1,9.277429236E0
2.226304833E0,-2.810106354E0,-6.073470154E0,5.209167480E-1,6.712308968E0
2.236343833E0,-1.797761536E0,-3.916605377E0,1.058299255E0,4.437537778E0
2.246384333E0,8.146060181E-1,-1.627116394E0,1.067280579E0,2.109544633E0
2.256423333E0,2.999761963E-1,-6.074368286E-1,6.577322388E-1,9.442335077E-1
2.266462333E0,-1.929786987E0,-1.496737518E0,-4.825964355E-1,2.489417670E0
2.276502333E0,-1.057999878E0,-4.767136688E0,-4.537065125E-1,4.904162064E0
2.286541333E0,2.766696625E0,-8.462053070E0,6.141728210E-1,8.924021550E0
2.296580333E0,5.544021149E0,-9.313482513E0,1.974543915E0,1.101707541E1
2.306619333E0,6.778504028E0,-8.857979736E0,1.293759613E0,1.122879049E1
2.316659333E0,5.938301239E0,-7.414681091E0,-1.451980591E-2,9.499533047E0
2.326698333E0,5.036875763E0,-5.522465973E0,-8.824150085E-1,7.526380546E0
2.336737333E0,4.616250458E0,-4.099524994E0,-1.606309662E0,6.379349825E0
2.346777333E0,4.249363403E0,-3.087778931E0,-1.727407837E0,5.529503223E0
2.356816333E0,2.988385620E0,-2.108814697E0,-1.532513123E0,3.965620319E0
2.366855333E0,1.604363708E0,-1.102607117E0,-1.262474670E0,2.320251636E0
2.376895333E0,6.071374512E-1,-3.436853027E-1,-7.241940308E-1,1.005580661E0
2.386934333E0,2.197430420E-1,2.615061951E-1,-3.423381042E-1,4.835988753E-1
2.396973333E0,-1.728904724E-1,5.586383057E-1,-2.630030823E-1,6.412008213E-1
2.407012333E0,-6.137237549E-1,5.703140259E-1,-3.677851868E-1,9.149758899E-1
2.417052333E0,-1.208287354E0,3.080593872E-1,-1.132993927E0,1.684794989E0
2.427091333E0,-2.262844391E0,-1.387015686E0,-4.437671814E0,5.170803456E0
2.437130333E0,-2.039508820E0,-6.296506348E0,-1.311827042E1,1.469335248E1
2.447170333E0,1.728006592E0,-1.249825974E1,-2.012834290E1,2.375589802E1
2.457209333E0,3.409459991E0,-1.241533218E1,-1.380010254E1,1.887346605E1
2.467248333E0,6.285429382E0,-9.966275024E0,-5.843997345E0,1.315239770E1
2.477287333E0,1.141556122E1,-1.686467972E1,-9.690847778E0,2.255315922E1
2.487327333E0,1.426473633E1,-3.071328140E1,-1.572869202E1,3.733872132E1
2.497366333E0,1.238389755E1,-4.271188019E1,-8.196056213E0,4.521991779E1
2.507405333E0,1.509760437E1,-5.160952744E1,6.807843018E-1,5.377680213E1
2.517445333E0,1.776161453E1,-5.808311554E1,-7.200027466E-1,6.074242064E1
2.527484333E0,1.148037643E1,-5.391428467E1,-3.379372559E0,5.522652708E1
2.537523333E0,6.228547668E0,-4.453823227E1,-3.026855621E0,4.507339342E1
2.547563333E0,5.418881378E0,-3.853945679E1,-2.571053467E0,3.900338858E1
2.557602333E0,4.477788391E0,-3.478571274E1,-2.190993805E0,3.514109921E1
2.567641333E0,3.858526154E0,-3.130874313E1,-1.615440674E0,3.158694777E1
2.577680333E0,4.033961334E0,-2.664803513E1,-9.898915100E-1,2.696980729E1
2.587720333E0,3.065924377E0,-2.111344437E1,-3.082090759E-1,2.133711363E1
2.597759333E0,1.799258423E0,-1.623224487E1,-4.296066284E-2,1.633171608E1
2.607798333E0,1.152603149E0,-1.163500488E1,-6.358776855E-1,1.170923452E1
2.617838333E0,9.277706909E-1,-7.463479614E0,-1.404379578E0,7.650919448E0
2.627877333E0,3.796105957E-1,-4.267775116E0,-1.920206909E0,4.695231966E0
2.637916333E0,1.426533508E-1,-1.944606171E0,-1.822160797E0,2.668728744E0
2.647956333E0,-2.814147949E-2,-5.057981873E-1,-1.481768646E0,1.565970009E0
2.657995333E0,8.232879639E-3,9.610015869E-2,-1.351389771E0,1.354827418E0
2.668034333E0,3.547622681E-2,3.158432007E-1,-1.154249725E0,1.197208386E0
2.678073333E0,-1.886077881E-2,3.570075989E-1,-9.452842712E-1,1.010629758E0
2.688113333E0,-3.637435913E-2,3.396437073E-1,-3.144960022E-1,4.643152779E-1
2.698152333E0,-1.095721436E-1,4.450245667E-1,5.445675659E-1,7.117631301E-1
2.708191333E0,-1.369651794E-1,8.390052795E-1,9.128018188E-1,1.247355795E0
2.718231333E0,-8.367599487E-2,1.451381836E0,1.440903625E0,2.046879128E0
2.728270333E0,4.775070190E-2,1.952539673E0,2.500699768E0,3.173041228E0
2.738309333E0,3.447331238E-1,2.173480225E0,3.308120728E0,3.973225385E0
2.748348333E0,7.315287781E-1,2.186952209E0,4.132456512E0,4.732345206E0
2.758388333E0,1.187630310E0,2.048639832E0,5.293442230E0,5.798958661E0
2.768427333E0,1.952240295E0,2.036515045E0,6.433321838E0,7.024689714E0
2.778466333E0,2.798879700E0,2.138902130E0,7.586523743E0,8.364446927E0
2.788506333E0,3.685336304E0,2.237397308E0,7.964936829E0,9.056923819E0
2.798545333E0,4.351451111E0,2.309696960E0,7.947572937E0,9.350601179E0
2.808584333E0,4.584366760E0,2.310894470E0,7.274572449E0,8.903710247E0
2.818624333E0,4.154760132E0,2.079026642E0,5.902076569E0,7.511250985E0
2.828663333E0,3.590583344E0,1.753753052E0,4.386777649E0,5.933949499E0
2.838702333E0,2.989433441E0,1.456920319E0,3.001408539E0,4.479707840E0
2.848741333E0,2.356250153E0,1.215023346E0,1.784439240E0,3.195687706E0
2.858781333E0,1.760638733E0,1.065634003E0,8.595126343E-1,2.230288444E0
2.868820333E0,1.273252258E0,9.183403015E-1,1.935475159E-1,1.581765110E0
2.878859333E0,9.761201477E-1,7.994874573E-1,-1.936972046E-1,1.276522363E0
2.888899333E0,6.994953918E-1,6.758445740E-1,-4.819976807E-1,1.085532798E0
2.898938333E0,5.049000549E-1,5.695655823E-1,-6.355783081E-1,9.916091991E-1
2.908977333E0,3.793112183E-1,4.755610657E-1,-7.816744995E-1,9.904798588E-1
2.919016333E0,3.558100891E-1,4.210743713E-1,-9.934840393E-1,1.136184396E0
2.929056333E0,3.463796997E-1,3.917353821E-1,-1.084195404E0,1.203708927E0
2.939095333E0,3.471281433E-1,4.966671753E-1,-1.203048248E0,1.347034268E0
2.949134333E0,3.790118408E-1,6.240522766E-1,-1.294657745E0,1.486347839E0
2.959174333E0,4.144880676E-1,6.930587769E-1,-1.595981140E0,1.788654977E0
2.969213333E0,4.944218445E-1,8.042774963E-1,-1.766775970E0,2.003200584E0
2.979252333E0,5.589376831E-1,8.825646973E-1,-1.821861420E0,2.100121618E0
2.989292333E0,5.951623535E-1,9.111552429E-1,-1.803449707E0,2.106383856E0
2.999331333E0,5.975573730E-1,8.607101440E-1,-1.669328613E0,1.970927392E0
3.009370333E0,5.860313416E-1,7.753875732E-1,-1.395847321E0,1.700896341E0
3.019409333E0,5.845344543E-1,7.497908020E-1,-1.091829529E0,1.447742551E0
3.029449333E0,5.394781494E-1,6.846762085E-1,-7.885601807E-1,1.175434108E0
3.039488333E0,4.559518433E-1,5.251080322E-1,-4.583468628E-1,8.328939762E-1
3.049527333E0,3.540138245E-1,3.869453430E-1,-2.594105530E-1,5.851036843E-1
3.059567333E0,2.481838989E-1,6.197113037E-2,-1.335223389E-1,2.885548192E-1
3.069606333E0,2.065704346E-2,-2.848576355E-1,-1.203497314E-1,3.099268362E-1
3.079645333E0,4.355941772E-2,-3.625460815E-1,7.185058594E-3,3.652241903E-1
3.089684333E0,1.037342834E-1,-4.540058899E-1,-2.963836670E-2,4.666482427E-1
3.099724333E0,1.284329224E-1,-4.875361633E-1,-1.751358032E-2,5.044732417E-1
3.109763333E0,1.588197327E-1,-5.224136353E-1,2.299218750E-1,5.924557219E-1
3.119802333E0,4.264631653E-1,-1.145268402E0,3.135978699E-1,1.261687033E0
3.129842333E0,3.179388428E-1,-5.186714172E0,-4.807402954E0,7.079139226E0
3.139881333E0,-3.548086716E1,-1.118891753E2,-1.630678986E1,1.185073452E2
3.149920333E0,-4.248061111E1,-1.908212352E2,3.522774353E0,1.955243107E2
3.159960333E0,-1.859148880E1,-8.641544815E1,-8.087681580E-1,8.839642097E1
3.169999333E0,-1.515852768E1,-3.667598190E1,-1.007464966E1,4.094395164E1
3.180038333E0,-5.160069580E0,-1.045411057E1,-1.381671799E1,1.807806521E1
3.190077333E0,-1.881736908E0,-3.024610291E0,-2.724394592E1,2.747584013E1
3.200117333E0,-1.231938171E0,1.191821594E0,-3.082629639E1,3.087391552E1
3.210156333E0,-5.133275299E0,-1.111887817E0,-1.221265366E1,1.329419870E1
3.220195333E0,-5.991440735E0,-3.830534363E0,-6.452032928E0,9.602035435E0
3.230235333E0,-4.969964905E0,-4.670886841E0,-3.054697723E0,7.473213045E0
3.240274333E0,-3.474574585E0,-4.208947449E0,-9.295669556E-1,5.536425011E0
3.250313417E0,-2.362836456E0,-3.335813141E0,1.227447510E-2,4.087884061E0
3.260352417E0,-1.805096283E0,-2.710862732E0,3.447331238E-1,3.275055766E0
3.270392417E0,-1.432221680E0,-2.337089996E0,3.594026184E-1,2.764492509E0
3.280431417E0,-1.064586182E0,-2.040107574E0,5.539979553E-1,2.366917064E0
3.290470417E0,-8.363108826E-1,-1.919608154E0,7.978408813E-1,2.240727880E0
3.300510417E0,-7.819738770E-1,-1.912273407E0,1.072968750E0,2.327989404E0
3.310549417E0,-8.415499878E-1,-2.023641815E0,1.336420898E0,2.566973587E0
3.320588417E0,-9.536668396E-1,-2.192191315E0,1.566642151E0,2.858242612E0
3.330628417E0,-1.037492523E0,-2.368374939E0,1.793719940E0,3.146906705E0
3.340667417E0,-1.050964508E0,-2.537223816E0,2.117197266E0,3.467644063E0
3.350706417E0,-9.539662170E-1,-2.728975067E0,2.522404633E0,3.836649787E0
3.360745417E0,-7.891589355E-1,-2.900967407E0,2.977458344E0,4.231269539E0
3.370785417E0,-6.185137939E-1,-3.126548309E0,3.609444122E0,4.815179178E0
3.380824417E0,-4.625381470E-1,-3.384761353E0,4.242777100E0,5.447174356E0
3.390863417E0,-1.902543640E-1,-3.570674744E0,4.715194702E0,5.917683324E0
3.400903417E0,-1.960922241E-2,-3.712729340E0,5.053940277E0,6.271128766E0
3.410942417E0,1.827699280E-1,-3.736829224E0,5.172194366E0,6.383485886E0
3.420981417E0,4.228706360E-1,-3.633693695E0,5.225633240E0,6.378855085E0
3.431021417E0,5.294490051E-1,-3.497776337E0,5.245392151E0,6.326839208E0
3.441060417E0,6.735992432E-1,-3.276237030E0,5.027595062E0,6.038557537E0
3.451099417E0,7.711962891E-1,-2.999462585E0,4.767436066E0,5.685065185E0
3.461138417E0,9.623487854E-1,-2.764301605E0,4.561314697E0,5.419692825E0
3.471178417E0,1.297651520E0,-2.736609192E0,4.230203247E0,5.202648253E0
3.481217417E0,1.465452576E0,-2.974763947E0,3.953428802E0,5.160074717E0
3.491256417E0,1.562301178E0,-3.651356964E0,3.637136536E0,5.385346305E0
3.501296417E0,8.565188599E-1,-4.747228088E0,3.241060181E0,5.811563488E0
3.511335417E0,-5.710624695E-1,-6.179150391E0,2.653082886E0,6.748841433E0
3.521374417E0,-1.735491028E0,-8.199499054E0,1.813329163E0,8.575072973E0
3.531413417E0,-3.318598938E0,-1.119956039E1,8.158035278E-1,1.170934615E1
3.541453417E0,-6.178701324E0,-1.588990677E1,-1.163081360E-1,1.704931127E1
3.551492417E0,-9.763596497E0,-2.398881500E1,-1.645079041E0,2.595182743E1
3.561531417E0,-1.741194168E1,-3.597064865E1,-4.786446533E0,4.024889251E1
3.571571417E0,-2.944017883E1,-4.607089508E1,-1.064750839E1,5.570117538E1
3.581610417E0,-2.650148987E1,-4.591731445E1,-1.079689774E1,5.410454447E1
3.591649417E0,-1.626442795E1,-4.240801208E1,-8.950786743E0,4.629349510E1
3.601688417E0,-1.654329803E1,-3.944582199E1,-1.206895248E1,4.444449568E1
3.611728417E0,-1.716720062E1,-3.479993317E1,-1.207494003E1,4.063929505E1
3.621767417E0,-1.722587860E1,-3.192815506E1,-1.225995529E1,3.829418341E1
3.631806417E0,-1.722483078E1,-3.069172623E1,-1.155102951E1,3.704191055E1
3.641846417E0,-1.643627060E1,-2.831841156E1,-9.764644318E0,3.416769971E1
3.651885417E0,-1.450004700E1,-2.384735916E1,-7.953710175E0,2.902084436E1
3.661924417E0,-1.152917496E1,-1.804362808E1,-6.312822418E0,2.232366718E1
3.671964417E0,-8.618477783E0,-1.291828629E1,-4.664749603E0,1.621481325E1
3.682003417E0,-6.089486847E0,-8.905431061E0,-3.465593262E0,1.133132336E1
3.692042417E0,-3.833079071E0,-5.627996521E0,-3.089575195E0,7.477453771E0
3.702081417E0,-2.153571625E0,-3.042123871E0,-2.913092194E0,4.730591350E0
3.712121417E0,-5.891748047E-1,-1.120420074E0,-2.614762573E0,2.905073391E0
3.722160417E0,4.634362793E-1,1.639091492E-1,-2.202519836E0,2.256708449E0
3.732199417E0,4.129911804E-1,7.430548096E-1,-1.959125977E0,2.135618589E0
3.742239417E0,1.630110168E-1,7.896080017E-1,-1.567390594E0,1.762602242E0
3.752278417E0,3.115022278E-1,8.147557068E-1,-1.257085876E0,1.530073659E0
3.762317417E0,3.433859253E-1,7.418572998E-1,-9.551637268E-1,1.257220701E0
3.772356417E0,3.528163147E-1,5.736071777E-1,-5.454656982E-1,8.666241251E-1
3.782396417E0,4.311035156E-1,4.285588074E-1,-2.917433167E-1,6.742603765E-1
3.792435417E0,5.337899780E-1,3.333567810E-1,1.821711731E-1,6.551677803E-1
3.802474417E0,7.316784668E-1,3.686833191E-1,6.867718506E-1,1.069082010E0
3.812514417E0,1.051263885E0,4.668791199E-1,1.341510315E0,1.767139438E0
3.822553417E0,1.656156006E0,5.707630920E-1,2.431244202E0,2.996593331E0
3.832592417E0,2.536175995E0,7.117698669E-1,3.922742615E0,4.725115305E0
3.842632417E0,3.734284515E0,9.122030640E-1,5.573659515E0,6.770721946E0
3.852671417E0,5.226830750E0,1.189276886E0,7.199877777E0,8.976211851E0
3.862710417E0,6.660549316E0,1.423090668E0,8.361462250E0,1.078434769E1
3.872749417E0,7.507188721E0,1.484762421E0,8.387358398E0,1.135386202E1
3.882789417E0,7.388784943E0,1.324296112E0,7.443421326E0,1.057130191E1
3.892828417E0,6.875202942E0,1.097218323E0,5.827381897E0,9.079134502E0
3.902867417E0,6.066135406E0,8.402027893E-1,4.062102814E0,7.348783489E0
3.912907417E0,4.994513855E0,5.956114197E-1,2.384241943E0,5.566375055E0
3.922946417E0,3.716471558E0,3.683839417E-1,1.147813110E0,3.907088750E0
3.932985417E0,2.509830780E0,1.993853760E-1,5.108876038E-1,2.569048699E0
3.943025417E0,1.549727325E0,6.840774536E-2,1.589694214E-1,1.559360664E0
3.953064417E0,8.569679260E-1,-9.430389404E-3,-8.726852417E-2,8.614515389E-1
3.963103417E0,4.596940613E-1,-4.266128540E-2,-4.309538269E-1,6.315534943E-1
3.973142417E0,2.829116821E-1,-1.079255676E-1,-9.271719360E-1,9.753639049E-1
3.983182417E0,1.866618347E-1,-1.312770081E-1,-1.172511749E0,1.194512493E0
3.993221417E0,1.091230774E-1,-1.020877075E-1,-1.254541168E0,1.263409391E0
4.003260417E0,4.834945679E-2,-8.442443848E-2,-1.347946930E0,1.351453322E0
4.013300417E0,2.993774414E-2,-6.496490479E-2,-1.349144440E0,1.351039387E0
4.023339417E0,3.442840576E-3,-5.074447632E-2,-1.390907593E0,1.391837198E0
4.033378417E0,-1.227447510E-2,-1.796264648E-2,-1.372795258E0,1.372967639E0
4.043417417E0,-2.305206299E-2,1.990859985E-2,-1.307830353E0,1.308184995E0
4.053457417E0,-5.433700562E-2,6.990463257E-2,-1.196911011E0,1.200181293E0
4.063496417E0,-7.319778442E-2,1.119671631E-1,-1.106948090E0,1.115001630E0
4.073535417E0,-7.649093628E-2,1.484912109E-1,-1.036444702E0,1.049818138E0
4.083575417E0,-1.097218323E-1,9.864486694E-2,-9.809101868E-1,9.919447992E-1
4.093614417E0,-1.402583313E-1,-7.649093628E-2,-8.943901062E-1,9.085466003E-1
4.103653417E0,-3.442840576E-2,-2.823129272E-1,-7.273374939E-1,7.809646177E-1
4.113692417E0,3.712280273E-2,-4.272116089E-1,-5.992039490E-1,7.368400327E-1
4.123732417E0,9.924362183E-2,-6.060896301E-1,-5.237608337E-1,8.071674840E-1
4.133771417E0,1.878593445E-1,-8.470884705E-1,-2.290237427E-1,8.973861403E-1
4.143810417E0,2.426454163E-1,-1.226549377E0,3.381468201E-1,1.295238760E0
4.153850417E0,5.849835205E-1,-2.586471405E0,-1.074016571E0,2.861040308E0
4.163889417E0,-1.680166077E1,-5.761099731E1,-8.261170807E0,6.057697384E1
4.173928417E0,-3.097014725E1,-1.726517189E2,-1.106439148E1,1.757560435E2
4.183968417E0,-7.328161011E0,-9.639384796E1,-1.252445526E0,9.668011423E1
4.194007417E0,-7.143894196E0,-2.970033783E1,-3.055446167E0,3.069985412E1
4.204046417E0,-6.519243164E0,-1.170326294E1,-3.765120392E0,1.391556777E1
4.214085417E0,-7.578290863E0,-9.934091949E0,-3.592978363E0,1.300100645E1
4.224125417E0,-1.000429596E1,-1.013871643E1,-4.570894775E0,1.495903030E1
4.234164417E0,-1.036474640E1,-1.014605118E1,-8.347241821E0,1.673459795E1
4.244203708E0,-6.399492188E0,-8.652756500E0,-9.755064240E0,1.452532181E1
4.254243708E0,-3.191962280E0,-6.961124268E0,-1.057745407E1,1.305865264E1
4.264282708E0,-1.713636475E0,-5.078040161E0,-1.042147842E1,1.171879919E1
4.274321708E0,-1.641636200E0,-3.507805481E0,-8.953032074E0,9.754816863E0
4.284360708E0,-1.797611847E0,-2.729573822E0,-6.673572235E0,7.430918381E0
4.294400708E0,-1.517095184E0,-2.242337036E0,-4.639452209E0,5.371607765E0
4.304439708E0,-1.121168518E0,-1.750908966E0,-3.284769287E0,3.887468369E0
4.314478708E0,-7.993377686E-1,-1.234033813E0,-2.416724396E0,2.828840244E0
4.324518708E0,-5.315446472E-1,-8.036787415E-1,-1.732048187E0,1.982026779E0
4.334557708E0,-2.561174011E-1,-4.610412598E-1,-1.185684357E0,1.297691242E0
4.344596708E0,-3.397933960E-2,-2.538720703E-1,-7.658074951E-1,8.075064973E-1
4.354636708E0,1.856140137E-1,-1.124162292E-1,-4.611909485E-1,5.096931053E-1
4.364675708E0,3.290158081E-1,-6.152206421E-2,-2.486329651E-1,4.169588921E-1
4.374714708E0,3.616479492E-1,-2.128573608E-1,-7.978408813E-2,4.271568751E-1
4.384753708E0,9.669891357E-2,-1.020428009E0,2.245330811E-2,1.025245411E0
4.394793708E0,-5.198689270E-1,-2.397713928E0,1.951940918E-1,2.461177872E0
4.404832708E0,-1.388063507E0,-4.517306213E0,4.287084961E-1,4.745162452E0
4.414871708E0,-2.758763123E0,-8.242160339E0,8.875044250E-1,8.736798334E0
4.424911708E0,-4.264182587E0,-1.356509125E1,1.497336273E0,1.429814567E1
4.434950708E0,-4.518803101E0,-1.960203735E1,2.112107849E0,2.022672612E1
4.444989708E0,-3.189866638E0,-2.433085373E1,2.674787750E0,2.468441172E1
4.455028708E0,-2.181862793E0,-2.451242615E1,3.457510071E0,2.485103492E1
4.465068708E0,-3.214415588E0,-1.921808578E1,3.578907623E0,1.981100372E1
4.475107708E0,-3.402274933E0,-1.298370026E1,2.869083710E0,1.372529010E1
4.485146708E0,-1.922751617E0,-9.062604218E0,1.478325806E0,9.381535918E0
4.495186708E0,-1.393452301E0,-7.095095673E0,3.981719971E-1,7.241590492E0
4.505225708E0,-1.311422882E0,-5.990093536E0,-2.748284912E-1,6.138125223E0
4.515264708E0,-1.189426575E0,-5.338797913E0,-6.845265198E-1,5.512356600E0
4.525303708E0,-1.149160309E0,-4.907095642E0,-9.041198730E-1,5.120311495E0
4.535343708E0,-1.022673340E0,-4.434228973E0,-9.752220154E-1,4.653955879E0
4.545382708E0,-7.584727478E-1,-3.974385223E0,-9.782157898E-1,4.162682422E0
4.555421708E0,-6.397695923E-1,-3.626658325E0,-8.788224792E-1,3.786064538E0
4.565461708E0,-9.644444275E-1,-3.408262482E0,-8.381071472E-1,3.639894200E0
4.575500708E0,-1.445693665E0,-3.246149597E0,-9.131011963E-1,3.668960503E0
4.585539708E0,-2.016456757E0,-3.161575470E0,-1.250649261E0,3.952945848E0
4.595579708E0,-2.483485565E0,-3.233725433E0,-1.803898773E0,4.458557111E0
4.605618708E0,-3.085832977E0,-3.354673920E0,-2.773133240E0,5.335397852E0
4.615657708E0,-3.767365723E0,-3.481759644E0,-4.449946289E0,6.791002627E0
4.625696708E0,-4.354145508E0,-3.913012848E0,-7.091203766E0,9.195402302E0
4.635736708E0,-4.208498383E0,-4.375251617E0,-9.364825745E0,1.116038738E1
4.645775708E0,-3.099604340E0,-4.234394531E0,-9.415570221E0,1.077917468E1
4.655814708E0,-1.876647491E0,-4.159250793E0,-8.359516296E0,9.523795760E0
4.665854708E0,-1.627266083E0,-4.502187653E0,-7.020251312E0,8.497153468E0
4.675893708E0,-2.671195221E0,-5.141508179E0,-5.451363831E0,7.955360323E0
4.685932708E0,-3.782933350E0,-7.889194336E0,-5.663772125E0,1.042248947E1
4.695972708E0,-5.094954987E0,-1.446636703E1,-8.603359222E0,1.758556600E1
4.706011708E0,-7.788304138E0,-2.491299316E1,-1.072519684E1,2.821958109E1
4.716050708E0,-1.051533325E1,-4.005759979E1,-1.310554688E1,4.343890990E1
4.726089708E0,-1.540805878E1,-5.524232300E1,-1.676169388E1,5.975012056E1
4.736129708E0,-1.680181046E1,-5.612713303E1,-1.289882675E1,5.999112958E1
4.746168708E0,-1.490255997E1,-4.539534988E1,-7.307953033E0,4.833456592E1
4.756207708E0,-1.166524200E1,-3.610686539E1,-5.530249786E0,3.834536819E1
4.766247708E0,-1.018811371E1,-3.116144943E1,-6.080804901E0,3.334381172E1
4.776286708E0,-9.619745636E0,-2.892480057E1,-5.160668335E0,3.091627551E1
4.786325708E0,-7.850424957E0,-2.526326477E1,-3.769161987E0,2.672205645E1
4.796364708E0,-5.716462555E0,-2.020423508E1,-2.585124207E0,2.115589578E1
4.806404708E0,-4.472549286E0,-1.577494583E1,-1.794618073E0,1.649464359E1
4.816443708E0,-3.654350739E0,-1.184337158E1,-1.192570038E0,1.245158436E1
4.826482708E0,-2.723586273E0,-8.018226013E0,-7.339237976E-1,8.499912631E0
4.836522708E0,-1.731449432E0,-4.712500305E0,-4.755610657E-1,5.042988657E0
4.846561708E0,-9.836045837E-1,-2.342628479E0,-2.647993469E-1,2.554506775E0
4.856600708E0,-3.017724609E-1,-6.378236389E-1,-6.661148071E-2,7.087472765E-1
4.866639708E0,1.028361511E-1,4.114942932E-1,9.595046997E-2,4.348670142E-1
4.876679708E0,1.791773987E-1,8.644523621E-1,2.409988403E-1,9.151299730E-1
4.886718708E0,1.619631958E-1,9.268725586E-1,5.051994324E-1,1.067965956E0
4.896757708E0,1.624122620E-1,9.633966064E-1,8.442443848E-1,1.291223972E0
4.906797708E0,1.631607056E-1,1.038540344E0,1.431622925E0,1.776156429E0
4.916836708E0,1.865121460E-1,1.092577972E0,2.086960144E0,2.363031115E0
4.926875708E0,3.101550293E-1,1.297950897E0,2.845133514E0,3.142555869E0
4.936914708E0,4.406835938E-1,1.564696198E0,3.535198517E0,3.891028755E0
4.946954708E0,6.029461670E-1,1.796414337E0,3.785927124E0,4.233661859E0
4.956993708E0,8.942404175E-1,2.203118591E0,3.606300659E0,4.319583533E0
4.967032708E0,1.152603149E0,2.575693817E0,3.380420380E0,4.403400346E0
4.977072708E0,1.534459076E0,2.648592224E0,3.188369751E0,4.419876366E0
4.987111708E0,1.952689362E0,2.442919922E0,3.145558777E0,4.435695380E0
4.997150708E0,2.272274780E0,2.233804779E0,3.068918152E0,4.423954689E0
5.007190708E0,2.564167786E0,2.276915131E0,3.146756287E0,4.654178131E0
5.017229708E0,2.742147675E0,2.086361389E0,3.063080292E0,4.610286172E0
5.027268708E0,2.561772766E0,1.801952820E0,2.749482422E0,4.167657287E0
5.037307708E0,2.241887970E0,1.457968140E0,2.302811279E0,3.529117815E0
5.047347708E0,1.853146362E0,1.205892334E0,1.731449432E0,2.808245876E0
5.057386708E0,1.521436157E0,9.696835327E-1,1.089584198E0,2.107664076E0
5.067425708E0,1.137634277E0,8.050259399E-1,6.315367126E-1,1.530070957E0
5.077465708E0,8.464897156E-1,6.409671021E-1,3.029699707E-1,1.104162338E0
5.087504708E0,6.993457031E-1,4.863386536E-1,1.990859985E-2,8.520598868E-1
5.097543708E0,5.680686951E-1,3.873944092E-1,-1.919009399E-1,7.138644418E-1
5.107582708E0,4.496649170E-1,3.188369751E-1,-3.900888062E-1,6.752961061E-1
5.117622708E0,3.692820740E-1,2.996768188E-1,-5.792953491E-1,7.495055353E-1
5.127661708E0,4.014651489E-1,3.121009827E-1,-9.509724426E-1,1.078392264E0
5.137700708E0,4.914280701E-1,3.520678711E-1,-1.210233307E0,1.352818536E0
5.147740708E0,5.528004456E-1,3.748205566E-1,-1.306483154E0,1.467302632E0
5.157779708E0,5.957611084E-1,4.144880676E-1,-1.292412415E0,1.482248800E0
5.167818708E0,6.399192810E-1,4.456233215E-1,-1.166973267E0,1.403532485E0
5.177858708E0,6.665638733E-1,4.986131287E-1,-1.046174469E0,1.336938095E0
5.187897708E0,7.454498291E-1,5.837860107E-1,-9.656419373E-1,1.352392659E0
5.197936708E0,8.195457458E-1,6.048921204E-1,-8.809181213E-1,1.346687211E0
5.207975708E0,8.849597168E-1,5.650749207E-1,-8.093669128E-1,1.325721753E0
5.218015708E0,8.822653198E-1,4.688250732E-1,-6.921606445E-1,1.215432187E0
5.228054708E0,6.559359741E-1,1.766326904E-2,-6.481521606E-1,9.223151395E-1
5.238093708E0,4.141886902E-1,-5.041516113E-1,-8.523275757E-1,1.073398069E0
5.248133542E0,5.225633240E-1,-6.703060913E-1,-1.092877350E0,1.384472313E0
5.258172542E0,7.605683899E-1,-8.339158630E-1,-1.047821045E0,1.540067818E0
5.268211542E0,1.405577087E0,-1.269360352E0,-1.145717468E0,2.213502014E0
5.278250542E0,3.848946075E0,-3.701352997E0,-2.321522369E0,5.822702638E0
5.288290542E0,8.045619049E0,-1.342213852E1,-2.881507874E0,1.591190988E1
5.298329542E0,-2.640164749E1,-1.168142336E2,-2.047352509E1,1.214980550E2
5.308368542E0,-4.313684647E1,-1.838223894E2,-7.454947357E0,1.889630509E2
5.318408542E0,-1.892709091E1,-7.957018295E1,-1.279239807E0,8.180027653E1
5.328447542E0,-7.603139191E0,-1.748723511E1,-4.292922821E0,1.954585131E1
5.338486542E0,-2.521356812E0,-4.438420258E0,-3.400478668E0,6.133520174E0
5.348525542E0,-3.016826477E0,-3.399430847E0,-4.725373535E0,6.556411147E0
5.358565542E0,-4.664150848E0,-2.530338135E0,-6.576573944E0,8.450339582E0
5.368604542E0,-6.321504364E0,-2.271676025E0,-7.714806976E0,1.022937809E1
5.378643542E0,-5.775888977E0,-1.861977997E0,-8.171357574E0,1.017835646E1
5.388683542E0,-4.013154602E0,-9.494755554E-1,-7.757917328E0,8.785908886E0
5.398722542E0,-2.560425568E0,-2.249821472E-1,-6.461163940E0,6.953634698E0
5.408761542E0,-1.734592896E0,2.636018372E-1,-4.880600739E0,5.186382363E0
5.418800542E0,-1.347497864E0,5.800437927E-1,-3.168161774E0,3.491339330E0
5.428840542E0,-1.140029297E0,9.027726746E-1,-1.917063446E0,2.406199816E0
5.438879542E0,-1.027762756E0,1.157243500E0,-1.274898834E0,2.005212168E0
5.448918542E0,-7.581733704E-1,1.365759888E0,-7.117698669E-1,1.716608072E0
5.458958542E0,-5.074447632E-1,1.449585571E0,-3.317102051E-1,1.571251150E0
5.468997542E0,-3.471281433E-1,1.402733002E0,-6.780899048E-2,1.446636057E0
5.479036542E0,-2.713856506E-1,1.287921753E0,1.411564636E-1,1.323751397E0
5.489076542E0,-2.450404358E-1,1.138831787E0,3.243754578E-1,1.209215486E0
5.499115542E0,-2.829116821E-1,8.881031799E-1,4.065545654E-1,1.016883913E0
5.509154542E0,-2.938389587E-1,5.613327026E-2,3.020718384E-1,4.251348883E-1
5.519193542E0,-1.678010559E-1,-5.673202515E-1,3.588038635E-1,6.919173900E-1
5.529233542E0,-5.453160095E-1,-1.024619293E0,3.637435913E-1,1.216356710E0
5.539272542E0,-2.088756409E0,-2.421664124E0,1.561253357E-1,3.201833160E0
5.549311542E0,-4.376299438E0,-5.825286255E0,1.675016785E-1,7.287936165E0
5.559351542E0,-8.691076813E0,-1.326885727E1,8.647517395E-1,1.588537645E1
5.569390542E0,-1.233599716E1,-2.289953018E1,1.730551300E0,2.606837387E1
5.579429542E0,-1.236997650E1,-2.990556107E1,1.802850952E0,3.241310187E1
5.589468542E0,-1.044752426E1,-3.014745804E1,2.063459015E0,3.197308012E1
5.599508542E0,-7.044351196E0,-2.443234268E1,2.455942841E0,2.554591764E1
5.609547542E0,-3.737577667E0,-1.821127945E1,2.677482147E0,1.878268076E1
5.619586542E0,-2.339784393E0,-1.433583847E1,3.110232239E0,1.485477702E1
5.629626542E0,-1.560055847E0,-1.205757614E1,3.186274109E0,1.256866180E1
5.639665542E0,-1.538949738E0,-1.072968750E1,2.643652496E0,1.115721554E1
5.649704542E0,-1.860630798E0,-9.812095642E0,1.733096008E0,1.013621180E1
5.659743542E0,-2.020797729E0,-8.944350128E0,9.711804199E-1,9.221074454E0
5.669783542E0,-1.926493835E0,-7.888894958E0,5.622308350E-1,8.140156367E0
5.679822542E0,-1.806144104E0,-6.912475433E0,2.887495422E-1,7.150374077E0
5.689861542E0,-1.625020752E0,-5.953270111E0,1.481918335E-1,6.172850094E0
5.699901542E0,-1.277293854E0,-4.987478485E0,7.873626709E-2,5.149040748E0
5.709940542E0,-9.039701843E-1,-4.077371063E0,6.795867920E-2,4.176928927E0
5.719979542E0,-8.494834900E-1,-3.341201935E0,4.191284180E-1,3.472883701E0
5.730018542E0,-9.211843872E-1,-2.896626434E0,8.039781189E-1,3.144106581E0
5.740058542E0,-8.975335693E-1,-2.564616852E0,1.003213806E0,2.896422629E0
5.750097542E0,-8.084687805E-1,-2.302811279E0,1.045725403E0,2.655203038E0
5.760136542E0,-4.649331665E-1,-2.057172089E0,6.306385803E-1,2.201323436E0
5.770176542E0,-3.592529297E-1,-1.873204651E0,1.763333130E-1,1.915476904E0
5.780215542E0,-6.348298645E-1,-1.713786163E0,-7.244934082E-2,1.829021836E0
5.790254542E0,-9.651928711E-1,-1.523531799E0,-2.805166626E-1,1.825222184E0
5.800294542E0,-1.217418365E0,-1.368154907E0,-5.108876038E-1,1.901305202E0
5.810333542E0,-1.460512848E0,-1.285676422E0,-8.080197144E-1,2.106883362E0
5.820372542E0,-1.567240906E0,-1.242566071E0,-1.109043732E0,2.286961411E0
5.830411542E0,-1.592987366E0,-1.262624359E0,-1.363215179E0,2.447485372E0
5.840451542E0,-1.503623199E0,-1.463806000E0,-1.687291260E0,2.692686860E0
5.850490542E0,-1.188977509E0,-2.007774811E0,-2.282453613E0,3.264111166E0
5.860529542E0,-7.466473389E-1,-3.092568970E0,-3.312162323E0,4.592590155E0
5.870569542E0,-1.294058990E0,-4.957091675E0,-4.615352325E0,6.895565505E0
5.880608542E0,-4.404740295E0,-7.778873749E0,-5.269042969E0,1.037667710E1
5.890647542E0,-9.382339325E0,-1.137125336E1,-5.513484650E0,1.573951102E1
5.900686542E0,-1.350910767E1,-1.727707214E1,-6.646179199E0,2.291647682E1
5.910726542E0,-1.848999985E1,-2.840089005E1,-8.253386993E0,3.487992326E1
5.920765542E0,-2.526640823E1,-4.565535919E1,-9.456135864E0,5.303038481E1
5.930804542E0,-2.677542023E1,-5.837740356E1,-9.498647461E0,6.492356028E1
5.940844542E0,-2.509845749E1,-5.573569702E1,-7.039411469E0,6.153010486E1
5.950883542E0,-2.144186142E1,-4.299658813E1,-2.765199738E0,4.812594250E1
5.960922542E0,-1.771775574E1,-3.361888916E1,-1.516047363E0,3.803218343E1
5.970961542E0,-1.799961960E1,-3.197096603E1,-2.054328003E0,3.674709837E1
5.981001542E0,-1.625604538E1,-3.082569763E1,-2.102378082E0,3.491278619E1
5.991040542E0,-1.238329880E1,-2.602577911E1,-2.213596802E0,2.890652657E1
6.001079542E0,-8.601562958E0,-2.001847137E1,-1.906285858E0,2.187144273E1
6.011119542E0,-5.106031952E0,-1.484612732E1,-1.305285645E0,1.575381951E1
6.021158542E0,-2.382595367E0,-1.053509216E1,-1.260828094E0,1.087449378E1
6.031197542E0,-7.051835632E-1,-7.102280731E0,-1.294058990E0,7.253569060E0
6.041236542E0,2.567161560E-1,-4.476141815E0,-1.326541443E0,4.675624122E0
6.051276542E0,8.241860962E-1,-2.409389648E0,-1.300345917E0,2.859255271E0
6.061315542E0,1.157542877E0,-8.256829834E-1,-1.011296997E0,1.744815038E0
6.071354542E0,1.103654938E0,1.085243225E-1,-6.953041077E-1,1.308923051E0
6.081394542E0,8.993298340E-1,3.954776001E-1,-7.949967957E-1,1.263810345E0
6.091433542E0,8.743318176E-1,5.177732849E-1,-6.984475708E-1,1.233034594E0
6.101472542E0,8.637039185E-1,6.011499023E-1,-4.553530884E-1,1.146608956E0
6.111511542E0,9.372010803E-1,7.018904114E-1,-5.942642212E-2,1.172402454E0
6.121551542E0,1.002016296E0,7.083270264E-1,3.951782227E-1,1.289158509E0
6.131590542E0,1.061143341E0,7.689509583E-1,9.385482788E-1,1.611888221E0
6.141629542E0,1.152154083E0,9.948312378E-1,1.712588654E0,2.291311441E0
6.151669542E0,1.379680939E0,1.214274902E0,2.546205139E0,3.140245793E0
6.161708542E0,1.561403046E0,1.239272919E0,3.070714417E0,3.661019512E0
6.171747542E0,1.693428497E0,1.221909027E0,3.515140228E0,4.088639452E0
6.181786542E0,1.878144379E0,1.188229065E0,4.054468689E0,4.623638283E0
6.191826542E0,2.195484467E0,1.169068909E0,4.634213104E0,5.259544206E0
6.201865542E0,2.629581757E0,1.246457977E0,4.973856812E0,5.762604384E0
6.211904542E0,3.331621857E0,1.432071991E0,5.018763428E0,6.191810779E0
6.221944542E0,3.917054443E0,1.556762695E0,4.973707123E0,6.519554290E0
6.231983542E0,4.144132233E0,1.494043121E0,4.494553528E0,6.293409904E0
6.242022542E0,3.894750824E0,1.304237823E0,3.597169647E0,5.459830561E0
6.252062542E0,3.307821350E0,1.088237000E0,2.421664124E0,4.241509045E0
6.262101542E0,2.415676575E0,8.397537231E-1,1.453028412E0,2.941423328E0
6.272140542E0,1.654808807E0,6.517446899E-1,6.432124329E-1,1.891265598E0
6.282179542E0,1.224004669E0,5.051994324E-1,1.797761536E-1,1.336313347E0
6.292219542E0,9.520202637E-1,4.049079895E-1,-9.325607300E-2,1.038744318E0
6.302258542E0,7.372169495E-1,3.493734741E-1,-2.435435486E-1,8.513895202E-1
6.312297542E0,6.090834045E-1,3.451821899E-1,-2.881507874E-1,7.570760954E-1
6.322337542E0,5.396278381E-1,3.703298950E-1,-3.367996216E-1,7.360546311E-1
6.332376542E0,5.051994324E-1,4.327500916E-1,-3.451821899E-1,7.494330207E-1
6.342415542E0,4.499642944E-1,5.254074097E-1,-3.502716064E-1,7.753779792E-1
6.352454542E0,3.793112183E-1,5.858816528E-1,-3.785627747E-1,7.940050918E-1
6.362494542E0,3.330574036E-1,6.715036011E-1,-4.334985352E-1,8.658898893E-1
6.372533542E0,3.369493103E-1,7.993377686E-1,-4.685256958E-1,9.858965633E-1
6.382572542E0,3.047662354E-1,8.443940735E-1,-5.150788879E-1,1.034983126E0
6.392612542E0,3.150947571E-1,8.496331787E-1,-5.312452698E-1,1.050420288E0
6.402651542E0,3.264710999E-1,8.529263306E-1,-5.230123901E-1,1.052429886E0
6.412690542E0,3.067121887E-1,8.328680420E-1,-4.689747620E-1,1.003832092E0
6.422729542E0,2.766247559E-1,7.864645386E-1,-4.390370178E-1,9.422320463E-1
6.432769542E0,1.233435059E-1,5.899232483E-1,-2.851570129E-1,6.667365157E-1
6.442808542E0,-1.619631958E-1,-2.728825378E-1,-1.245410156E-1,3.408920956E-1
6.452847542E0,-9.490264893E-2,-6.798861694E-1,1.197509766E-3,6.864788053E-1
6.462887542E0,1.586700439E-2,-7.617658997E-1,1.567240906E-1,7.778826957E-1
6.472926542E0,2.965333557E-1,-9.107061768E-1,1.082997894E0,1.445753164E0
6.482965542E0,2.131567383E-1,-1.417851562E0,2.260449371E0,2.676820915E0
6.493004542E0,8.831634521E-3,-2.212848358E0,1.669478302E0,2.771990919E0
6.503044542E0,1.228345642E0,-3.124153290E0,-1.360820160E0,3.622291858E0
6.513083542E0,-7.741301880E0,-7.776643387E1,-1.473116638E1,7.952705989E1
6.523122542E0,1.996877472E1,-2.035563025E2,-1.058583664E1,2.048071781E2
6.533162542E0,2.853830429E1,-1.017339931E2,2.955753479E0,1.057023019E2
6.543201542E0,2.388433228E0,-2.925681015E1,-2.452500000E0,2.945641373E1
6.553240542E0,4.008663940E-1,-7.797734528E0,-6.341562653E0,1.005886547E1
6.563279542E0,-1.650318146E0,-5.268444214E0,-7.995473328E0,9.716359820E0
6.573319542E0,-5.042713623E0,-4.041146393E0,-1.205398361E1,1.367692750E1
6.583358542E0,-6.732549591E0,-1.992506561E0,-1.534953049E1,1.687914075E1
6.593397542E0,-5.306465149E0,-5.834866333E-1,-1.583152817E1,1.670737302E1
6.603437542E0,-3.073558502E0,2.740800476E-1,-1.290646088E1,1.327021530E1
6.613476542E0,-1.812880096E0,4.333488464E-1,-7.672894135E0,7.896051536E0
6.623515542E0,-1.720821533E0,6.327342224E-1,-3.721111908E0,4.148283160E0
6.633555542E0,-1.936373291E0,9.479786682E-1,-1.887425079E0,2.865410705E0
6.643594542E0,-1.584305420E0,1.169667664E0,-9.101074219E-1,2.169433480E0
6.653633542E0,-1.182690582E0,1.336121521E0,-3.182382202E-1,1.812526771E0
6.663672542E0,-9.105564880E-1,1.371148682E0,-5.523513794E-2,1.646879700E0
6.673712542E0,-6.243516541E-1,1.294508057E0,-1.618135071E-1,1.446288252E0
6.683751542E0,-5.135820007E-1,1.163081360E0,-1.137634277E-1,1.276505714E0
6.693790542E0,-4.083508301E-1,1.054257660E0,1.811233521E-2,1.130724401E0
6.703830542E0,-3.378474426E-1,9.568103027E-1,1.969903564E-1,1.033649868E0
6.713869542E0,-3.993695068E-1,8.210426331E-1,3.990701294E-1,9.964256001E-1
6.723908542E0,-5.736071777E-1,2.981799316E-1,4.876858521E-1,8.097987134E-1
6.733947542E0,-3.582051086E-1,-7.228468323E-1,4.095483398E-1,9.047365835E-1
6.743987542E0,-7.695497131E-1,-1.318458252E0,4.411326599E-1,1.589067949E0
6.754026542E0,-1.164278870E0,-3.038980408E0,-5.044509888E-2,3.254764494E0
6.764065542E0,-2.676733704E0,-1.081411194E1,-1.822759552E0,1.128859481E1
6.774105542E0,-7.877668304E0,-2.754227554E1,-3.048261108E0,2.880844487E1
6.784144542E0,-1.281530045E1,-4.319971573E1,-3.068618774E-1,4.506153048E1
6.794183542E0,-1.207553879E1,-4.031820786E1,3.466641083E0,4.223025127E1
6.804222542E0,-3.910917206E0,-2.359827713E1,3.708388367E0,2.420591046E1
6.814262542E0,1.418300629E0,-1.104463257E1,2.663261719E0,1.144938637E1
6.824301542E0,1.515149231E0,-6.995103607E0,1.759141846E0,7.370327788E0
6.834340542E0,9.376501465E-1,-5.508245544E0,7.822732544E-1,5.641977332E0
6.844380542E0,8.927435303E-1,-4.562961273E0,1.089733887E-1,4.650750670E0
6.854419542E0,1.148561554E0,-3.597469025E0,-3.001258850E-1,3.788278313E0
6.864458542E0,1.466201019E0,-2.805915070E0,-6.337820435E-1,3.228712512E0
6.874497542E0,1.612596588E0,-2.141895905E0,-8.916957092E-1,2.825474661E0
6.884537542E0,1.802252197E0,-1.621727600E0,-1.134341125E0,2.676722470E0
6.894576542E0,1.852996674E0,-1.276096344E0,-1.585951996E0,2.752682743E0
6.904615542E0,1.614542542E0,-9.659413147E-1,-1.861678619E0,2.646816488E0
6.914655542E0,1.166224823E0,-7.017407227E-1,-2.108665009E0,2.509778575E0
6.924694542E0,3.629951477E-1,-5.391787720E-1,-2.296374664E0,2.386590837E0
6.934733542E0,-3.644920349E-1,-4.245172119E-1,-2.320175171E0,2.386688528E0
6.944772542E0,-5.767506409E-1,-2.912942505E-1,-2.318827972E0,2.407167798E0
6.954812542E0,-6.535409546E-1,-2.989283752E-1,-2.446961517E0,2.550312651E0
6.964851542E0,-6.718029785E-1,-4.659809875E-1,-2.503992920E0,2.634091507E0
6.974890542E0,-2.005828857E-2,-1.045276337E0,-2.678979034E0,2.875749228E0
6.984930542E0,1.587748260E0,-2.402503967E0,-3.976181488E0,4.909479512E0
6.994969542E0,3.161874847E0,-5.094805298E0,-6.452182617E0,8.808243531E0
7.005008542E0,2.572250977E0,-1.001836670E1,-8.377179565E0,1.331019473E1
7.015047542E0,-3.731739807E0,-1.782238815E1,-6.884932709E0,1.946704137E1
7.025087542E0,-8.585845642E0,-2.818249420E1,-3.489992523E0,2.966731826E1
7.035126542E0,-3.880530396E0,-3.863046753E1,-2.216291199E0,3.888808924E1
7.045165542E0,2.523153076E0,-4.689508118E1,-3.538192291E0,4.709600561E1
7.055205542E0,-3.787124634E-1,-5.484340256E1,-6.052813110E0,5.517770178E1
7.065244542E0,-6.739584961E0,-5.485238388E1,-6.519093475E0,5.564804222E1
7.075283542E0,-8.867260437E0,-4.545702164E1,-4.630919952E0,4.654475850E1
7.085322542E0,-8.529712372E0,-3.688389954E1,-4.266278229E0,3.809697059E1
7.095362542E0,-6.462810516E0,-3.364777908E1,-5.964347076E0,3.477807345E1
7.105401542E0,-5.178181915E0,-3.050491470E1,-6.626569977E0,3.164292683E1
7.115440542E0,-3.717519379E0,-2.431842957E1,-5.898484039E0,2.529818335E1
7.125480542E0,-3.937412109E0,-1.732182907E1,-4.412973175E0,1.830364195E1
7.135519542E0,-4.723277893E0,-1.325778030E1,-3.079845428E0,1.440706565E1
7.145558542E0,-3.657045135E0,-9.810449066E0,-1.631607056E0,1.059627442E1
7.155597542E0,-1.839524689E0,-6.196214905E0,-1.050066376E0,6.548249355E0
7.165637542E0,-8.092172241E-1,-3.550466766E0,-7.441026306E-1,3.716764117E0
7.175676542E0,-2.317181396E-1,-1.687141571E0,-3.095562744E-1,1.730885630E0
7.185715542E0,9.879455566E-2,-3.867956543E-1,-3.173400879E-2,4.004725830E-1
7.195755542E0,5.284011841E-2,3.288661194E-1,5.867797852E-2,3.382131100E-1
7.205794542E0,-1.631607056E-2,4.972659302E-1,-1.137634277E-2,4.976635818E-1
7.215833542E0,-5.628295898E-2,5.155279541E-1,-5.538482666E-3,5.186207841E-1
7.225872542E0,-9.654922485E-2,5.502557373E-1,-5.239105225E-3,5.586864751E-1
7.235912542E0,-1.552272034E-1,6.159690857E-1,7.499404907E-2,6.396385750E-1
7.245950917E0,-2.404000854E-1,6.170169067E-1,2.353106689E-1,7.027611082E-1
7.255989917E0,-4.382885742E-1,6.234535217E-1,4.197271729E-1,8.700356703E-1
7.266029917E0,-5.436694336E-1,6.836283875E-1,6.803352356E-1,1.107149610E0
7.276068917E0,-6.102809143E-1,8.999285889E-1,1.049168243E0,1.510982549E0
7.286107917E0,-7.134164429E-1,1.127455444E0,1.272354126E0,1.843638745E0
7.296146917E0,-6.947053528E-1,1.345102844E0,1.432670746E0,2.084337462E0
7.306186917E0,-4.824467468E-1,1.478924561E0,1.576371918E0,2.214705656E0
7.316225917E0,6.137237549E-2,1.569336548E0,2.324067078E0,2.804972647E0
7.326264917E0,4.501139832E-1,1.687141571E0,3.314257965E0,3.746112003E0
7.336304917E0,9.663903809E-1,1.636846161E0,4.239334259E0,4.645980056E0
7.346343917E0,1.448238373E0,1.619781647E0,4.948709106E0,5.404702470E0
7.356382917E0,1.801054688E0,1.562750244E0,5.179678802E0,5.702197718E0
7.366422917E0,2.078427887E0,1.456471252E0,5.087021484E0,5.684976567E0
7.376461917E0,2.199825439E0,1.297501831E0,4.619393921E0,5.278403467E0
7.386500917E0,2.138752441E0,1.118324432E0,3.772455139E0,4.478429336E0
7.396539917E0,1.902543640E0,9.060658264E-1,2.775827637E0,3.485089189E0
7.406579917E0,1.637893982E0,7.457492065E-1,1.876198425E0,2.599799820E0
7.416618917E0,1.359922028E0,5.938151550E-1,1.140777740E0,1.871731341E0
7.426657917E0,1.114282837E0,4.903802490E-1,6.010002136E-1,1.357681953E0
7.436697917E0,9.213340759E-1,4.423301697E-1,2.466870117E-1,1.051364323E0
7.446736917E0,7.747888184E-1,4.276606750E-1,-3.203338623E-2,8.855605591E-1
7.456775917E0,6.460565186E-1,3.930825806E-1,-1.959425354E-1,7.812147064E-1
7.466814917E0,5.767506409E-1,3.806584167E-1,-3.332070923E-1,7.671825717E-1
7.476854917E0,5.402265930E-1,3.480262756E-1,-5.385800171E-1,8.384721195E-1
7.486893917E0,5.300477600E-1,3.052153015E-1,-5.818400574E-1,8.441829544E-1
7.496932917E0,5.120851135E-1,2.894979858E-1,-6.156697083E-1,8.515218359E-1
7.506972917E0,5.174739075E-1,2.773731995E-1,-6.213578796E-1,8.548688503E-1
7.517011917E0,5.237608337E-1,2.447410583E-1,-5.987548828E-1,8.323046355E-1
7.527050917E0,5.498066711E-1,1.763333130E-1,-4.641847229E-1,7.408429455E-1
7.537089917E0,4.552033997E-1,-2.754272461E-2,-2.772235107E-1,5.336868104E-1
7.547129917E0,3.200344849E-1,-2.203417969E-1,-5.313949585E-2,3.921688220E-1
7.557168917E0,3.513194275E-1,-3.195854187E-1,1.383123779E-1,4.946619996E-1
7.567207917E0,4.580474854E-1,-4.688250732E-1,9.674382019E-1,1.168563701E0
7.577247917E0,4.474195862E-1,-7.301815796E-1,2.673290863E0,2.807104106E0
7.587286917E0,7.599696350E-1,-1.564247131E0,3.458408203E0,3.871047692E0
7.597325917E0,2.379601593E0,-3.788621521E0,3.111729126E0,5.449680259E0
7.607364917E0,4.121229858E0,-1.174876831E1,-1.604663086E0,1.255360649E1
7.617404917E0,-1.261561569E1,-1.231638794E2,-2.946248245E1,1.272655995E2
7.627443917E0,-7.037764893E0,-1.663077612E2,-1.722632767E1,1.673455943E2
7.637482917E0,-8.256530457E0,-7.198695236E1,-5.287604370E0,7.265156822E1
7.647522917E0,-6.521189117E0,-1.802267166E1,1.799258423E-1,1.916702832E1
7.657561917E0,-4.954696655E0,-5.043013000E0,1.465751953E0,7.220071181E0
7.667600917E0,-4.902604980E0,-2.995570679E0,6.234535217E-1,5.779072034E0
7.677639917E0,-4.677473145E0,-1.839674377E0,-1.362766113E0,5.207714308E0
7.687679917E0,-5.092410278E0,-1.984722748E0,-2.965632935E0,6.218259043E0
7.697718917E0,-4.692292328E0,-2.760260010E0,-3.917204132E0,6.706797360E0
7.707757917E0,-3.081492004E0,-2.807262268E0,-4.008963318E0,5.783433349E0
7.717797917E0,-1.532812500E0,-2.308050385E0,-3.790567474E0,4.695211658E0
7.727836917E0,-7.402107239E-1,-1.635498962E0,-3.979474640E0,4.365659994E0
7.737875917E0,-1.428030396E-1,-9.054670715E-1,-4.098327484E0,4.199589443E0
7.747914917E0,3.068618774E-1,-3.159928894E-1,-3.633394318E0,3.659995900E0
7.757954917E0,5.358856201E-1,4.296066284E-2,-3.068319397E0,3.115060664E0
7.767993917E0,7.192543030E-1,3.709286499E-1,-2.536325684E0,2.662304038E0
7.778032917E0,6.810836792E-1,5.680686951E-1,-2.588267670E0,2.736001928E0
7.788072917E0,5.200186157E-1,5.767506409E-1,-2.239043884E0,2.369889908E0
7.798111917E0,3.842509460E-1,5.468128967E-1,-1.759890289E0,1.882516126E0
7.808150917E0,2.850073242E-1,5.261558533E-1,-1.445094910E0,1.564087099E0
7.818189917E0,7.499404907E-2,3.849993896E-1,-1.222657471E0,1.284032682E0
7.828229917E0,-2.510279846E-1,-2.776725769E-1,-1.107546844E0,1.169092435E0
7.838268917E0,-2.851570129E-1,-7.637118530E-1,-7.875123596E-1,1.133466379E0
7.848307917E0,-1.119671631E0,-1.889969788E0,-1.001716919E0,2.414350253E0
7.858347917E0,-4.743785248E0,-6.229745178E0,-1.502874756E0,7.973196097E0
7.868386917E0,-1.305001236E1,-1.808269684E1,-1.155596924E0,2.232984890E1
7.878425917E0,-1.937795334E1,-3.584640701E1,1.352138214E0,4.077129197E1
7.888464917E0,-1.329894470E1,-3.933610016E1,2.708617401E0,4.161162475E1
7.898504917E0,-6.735094299E0,-2.852767639E1,1.680106201E0,2.936005062E1
7.908543917E0,-3.305126953E0,-1.614797012E1,1.657802582E0,1.656590211E1
7.918582917E0,-2.264041901E0,-9.310339050E0,1.488804016E0,9.696640468E0
7.928622917E0,-2.845432892E0,-6.630611572E0,7.298822021E-1,7.252187683E0
7.938661917E0,-2.563868408E0,-5.397924957E0,1.100361786E0,6.076332045E0
7.948700917E0,-2.456990662E0,-4.969665527E0,1.432371368E0,5.725911831E0
7.958739917E0,-2.475402374E0,-4.754562836E0,1.243314514E0,5.502664414E0
7.968779917E0,-2.103425903E0,-4.331692200E0,8.412506104E-1,4.888318774E0
7.978818917E0,-1.793270874E0,-3.817361755E0,2.883004761E-1,4.227432834E0
7.988857917E0,-1.519190826E0,-3.375181274E0,-1.770817566E-1,3.705556281E0
7.998897917E0,-1.194066925E0,-2.993025970E0,-4.568499756E-1,3.254644709E0
8.008936917E0,-9.087602234E-1,-2.687211914E0,-5.306465149E-1,2.885920778E0
8.018975917E0,-6.869215393E-1,-2.467468872E0,-4.474195862E-1,2.600086176E0
8.029015917E0,-3.981719971E-1,-2.320324860E0,-2.101629639E-1,2.363602518E0
8.039054917E0,-9.400451660E-2,-2.272873535E0,-4.311035156E-2,2.275225145E0
8.049093917E0,-8.562194824E-2,-2.170336761E0,6.691085815E-2,2.173055416E0
8.059132917E0,-1.523831177E-1,-2.003882904E0,2.788700867E-1,2.028924797E0
8.069172917E0,-1.448986816E-1,-1.792971497E0,6.189628601E-1,1.902329477E0
8.079211917E0,1.472937012E-1,-1.734742584E0,8.181985474E-1,1.923662167E0
8.089250917E0,8.144563293E-1,-1.968706055E0,8.990304565E-1,2.312444249E0
8.099290917E0,1.675615540E0,-2.637964325E0,9.187893677E-1,3.257409572E0
8.109329917E0,2.815345459E0,-4.085005188E0,5.028044128E-1,4.986607035E0
8.119368917E0,2.500250702E0,-6.020779724E0,-4.552033997E-1,6.535155101E0
8.129407917E0,2.097138977E-1,-8.047115936E0,-1.345551910E0,8.161529560E0
8.139447917E0,-5.944438477E0,-9.503587189E0,-5.334906006E-1,1.122226049E1
8.149486917E0,-9.947114868E0,-1.321496933E1,-4.007167053E-1,1.654512262E1
8.159525917E0,-1.250574417E1,-2.481524643E1,-3.121758270E0,2.796310904E1
8.169565917E0,-1.462638428E1,-4.349235718E1,-6.563551025E0,4.635295516E1
8.179604917E0,-1.800186493E1,-5.488486633E1,-8.412057037E0,5.837104074E1
8.189643917E0,-2.219838821E1,-5.455046173E1,-6.869664459E0,5.929345330E1
8.199682917E0,-2.465013977E1,-4.840544037E1,-4.320914612E0,5.449207604E1
8.209722917E0,-2.184766754E1,-3.823678619E1,-3.169359283E0,4.415220531E1
8.219761917E0,-1.742825775E1,-3.056538895E1,-4.214934998E0,3.543660321E1
8.229800917E0,-1.474987747E1,-2.742521896E1,-5.605692902E0,3.164056437E1
8.239840917E0,-1.203242844E1,-2.350487137E1,-5.832471313E0,2.704211593E1
8.249880542E0,-9.215586090E0,-1.742227020E1,-4.509372711E0,2.021872816E1
8.259919542E0,-7.755073242E0,-1.190639053E1,-2.435585175E0,1.441649651E1
8.269958542E0,-7.182364197E0,-9.462572479E0,-1.430126038E0,1.196544583E1
8.279998542E0,-4.827461243E0,-6.753805389E0,-9.620494080E-1,8.357260816E0
8.290037542E0,-2.425705719E0,-4.142485657E0,-8.015830994E-1,4.866905702E0
8.300076542E0,-1.153501282E0,-2.289488983E0,-9.737251282E-1,2.742346739E0
8.310116542E0,-6.096821594E-1,-8.545729065E-1,-1.157692566E0,1.562772941E0
8.320155542E0,-1.501377869E-1,2.398013306E-1,-1.325792999E0,1.355644906E0
8.330194542E0,1.085243225E-1,7.897576904E-1,-1.377435608E0,1.591484713E0
8.340233542E0,1.369651794E-1,8.291258240E-1,-1.517544250E0,1.734690072E0
8.350273542E0,1.511856079E-1,8.327183533E-1,-1.538800049E0,1.756184083E0
8.360312542E0,1.137634277E-1,8.628057861E-1,-1.439257050E0,1.681914622E0
8.370351542E0,9.310638428E-2,9.319619751E-1,-1.010548553E0,1.377835368E0
8.380391542E0,5.882766724E-2,8.113128662E-1,-4.846920776E-1,9.468979203E-1
8.390430542E0,1.175056458E-1,7.839198303E-1,-9.520202637E-2,7.983741623E-1
8.400469542E0,9.924362183E-2,1.047821045E0,1.351689148E-1,1.061154501E0
8.410508542E0,1.459465027E-1,1.341959381E0,5.224136353E-1,1.447436136E0
8.420548542E0,4.221221924E-1,1.424437866E0,1.165326691E0,1.888172841E0
8.430587542E0,8.804690552E-1,1.503024445E0,1.995051270E0,2.648497273E0
8.440626542E0,1.304088135E0,1.538350983E0,3.022215271E0,3.633311816E0
8.450666542E0,1.980830841E0,1.581012268E0,4.055516510E0,4.782311656E0
8.460705542E0,2.631976776E0,1.632654877E0,4.843028870E0,5.748720930E0
8.470744542E0,3.157533875E0,1.665586395E0,5.341941376E0,6.424993064E0
8.480783542E0,3.380121002E0,1.593735809E0,5.358706512E0,6.533065690E0
8.490823542E0,3.429218903E0,1.510059814E0,5.072950745E0,6.306714849E0
8.500862542E0,3.292852478E0,1.438358917E0,4.313430176E0,5.614038983E0
8.510901542E0,2.891087952E0,1.224603424E0,3.447031860E0,4.662624984E0
8.520941542E0,2.386636963E0,9.913883972E-1,2.565215607E0,3.641320922E0
8.530980542E0,1.928888855E0,7.716453552E-1,1.905836792E0,2.819266331E0
8.541019542E0,1.565744019E0,5.837860107E-1,1.375789032E0,2.164522095E0
8.551058542E0,1.292861481E0,4.718188477E-1,9.084608459E-1,1.649061837E0
8.561098542E0,1.071172485E0,3.776646423E-1,6.033952332E-1,1.286128642E0
8.571137542E0,8.161029053E-1,2.829116821E-1,4.114942932E-1,9.567604325E-1
8.581176542E0,6.075865173E-1,2.291734314E-1,2.022294617E-1,6.801313056E-1
8.591216542E0,4.860392761E-1,2.004331970E-1,2.125579834E-2,5.261743564E-1
8.601255542E0,4.532574463E-1,2.061213684E-1,-2.191442871E-1,5.440152109E-1
8.611294542E0,4.504133606E-1,2.549198914E-1,-4.537065125E-1,6.882629918E-1
8.621333542E0,4.543052673E-1,3.107537842E-1,-5.412744141E-1,7.719709720E-1
8.631373542E0,4.784051514E-1,3.409909058E-1,-5.278024292E-1,7.897605276E-1
8.641412542E0,4.957690430E-1,3.721261597E-1,-4.510121155E-1,7.666007768E-1
8.651451542E0,5.098397827E-1,3.691323853E-1,-3.309617615E-1,7.111476706E-1
8.661491542E0,5.119354248E-1,3.161425781E-1,-8.068222046E-2,6.070697073E-1
8.671530542E0,4.207749939E-1,-3.427871704E-2,2.160008240E-1,4.742182851E-1
8.681569542E0,2.537223816E-1,-4.469705200E-1,5.025050354E-1,7.187969138E-1
8.691608542E0,1.094224548E-1,-6.095324707E-1,8.960366821E-1,1.089212946E0
8.701648542E0,-1.302291870E-2,-7.963439941E-1,1.671274567E0,1.851348706E0
8.711687542E0,-1.276844788E-1,-1.150357819E0,3.367547150E0,3.560898797E0
8.721726542E0,6.436614990E-2,-2.149230652E0,7.046297150E0,7.367064471E0
8.731766542E0,3.725752258E-1,-4.015399933E0,8.593779144E0,9.492907294E0
8.741805542E0,8.741821289E-2,-6.708898773E0,5.095254364E0,8.424878737E0
8.751844542E0,-1.947704727E1,-6.958624466E1,-1.045680496E1,7.301332472E1
8.761883542E0,-4.492233353E1,-1.879012573E2,-1.093371323E1,1.935056708E2
8.771923542E0,-2.699411545E1,-9.508407166E1,-2.355202332E0,9.886966132E1
8.781962542E0,-1.652189255E1,-2.741563889E1,-3.905528412E0,3.224660201E1
8.792001542E0,-5.333259430E0,-8.140521698E0,-9.779164124E-1,9.781005581E0
8.802041542E0,-4.700076141E0,-4.572990417E0,-1.568588104E0,6.742657172E0
8.812080542E0,-4.336482239E0,-3.247047729E0,-2.590063934E0,6.004733828E0
8.822119542E0,-4.554728394E0,-3.040327606E0,-2.064057770E0,5.852305287E0
8.832158542E0,-4.622986450E0,-3.237317963E0,-1.919458466E0,5.961254240E0
8.842198542E0,-4.529880066E0,-3.344345398E0,-3.267255707E0,6.509947727E0
8.852237542E0,-3.700005798E0,-2.659369812E0,-3.535647583E0,5.767416626E0
8.862276542E0,-2.579735413E0,-1.680405579E0,-3.054847412E0,4.337152340E0
8.872316542E0,-1.979184265E0,-5.200186157E-1,-2.755469971E0,3.432230248E0
8.882355542E0,-1.977388000E0,2.107617188E-1,-2.677631836E0,3.335295497E0
8.892394542E0,-1.676513672E0,4.026626587E-1,-2.463576965E0,3.006999630E0
8.902433542E0,-1.214424591E0,2.742297363E-1,-2.170636139E0,2.502336964E0
8.912473542E0,-8.752299500E-1,8.382568359E-2,-1.967059479E0,2.154617647E0
8.922512542E0,-6.029461670E-1,-9.624984741E-2,-1.790875854E0,1.892100536E0
8.932551542E0,-4.540058899E-1,-2.424957275E-1,-1.641785889E0,1.720577354E0
8.942591542E0,-6.727011108E-1,-6.194119263E-1,-1.522483978E0,1.775994196E0
8.952630542E0,-1.249002686E0,-1.427281952E0,-1.427431641E0,2.373752845E0
8.962669542E0,-1.957030334E0,-2.478396149E0,-1.325792999E0,3.424929529E0
8.972708542E0,-3.271147614E0,-3.907624054E0,-1.353036346E0,5.272631204E0
8.982748542E0,-4.990472260E0,-5.884712677E0,-1.299597473E0,7.824551761E0
8.992787542E0,-6.994504852E0,-8.363707581E0,-1.148860931E0,1.096332906E1
9.002826542E0,-8.992100830E0,-1.104433319E1,-8.726852417E-1,1.426873339E1
9.012866542E0,-1.046354095E1,-1.350326981E1,-7.902067566E-1,1.710112311E1
9.022905542E0,-1.109223358E1,-1.543844559E1,-9.229806519E-1,1.903247596E1
9.032944542E0,-1.056547897E1,-1.606758728E1,-8.373587036E-1,1.924832140E1
9.042983542E0,-9.116492157E0,-1.492291763E1,-3.606001282E-1,1.749096717E1
9.053023542E0,-6.932084656E0,-1.179262711E1,3.315605164E-1,1.368319349E1
9.063062542E0,-5.711822205E0,-8.654403076E0,9.316625977E-1,1.041112869E1
9.073101542E0,-5.433700562E0,-6.808591461E0,1.362017670E0,8.816865180E0
9.083141542E0,-4.852010193E0,-5.699398041E0,1.739233246E0,7.684404546E0
9.093180542E0,-3.929777985E0,-4.730013885E0,1.791175232E0,6.405036696E0
9.103219542E0,-3.098556519E0,-3.955524445E0,1.576970673E0,5.266313951E0
9.113258542E0,-2.415077820E0,-3.319497070E0,1.142723694E0,4.261159363E0
9.123298542E0,-1.684596863E0,-2.715503082E0,6.878196716E-1,3.268779509E0
9.133337542E0,-1.003064117E0,-2.186503143E0,3.020718384E-1,2.424496033E0
9.143376542E0,-4.596940613E-1,-1.699865112E0,6.032455444E-2,1.761958876E0
9.153416542E0,-6.092330933E-2,-1.322200470E0,-2.125579834E-2,1.323773977E0
9.163455542E0,1.776805115E-1,-1.009201355E0,-1.302291870E-2,1.024805999E0
9.173494542E0,2.073188782E-1,-7.958949280E-1,4.116439819E-2,8.234830668E-1
9.183533542E0,1.667532349E-1,-7.408094788E-1,1.493893433E-1,7.739008341E-1
9.193573542E0,2.290237427E-1,-9.699829102E-1,2.005828857E-1,1.016637701E0
9.203612542E0,1.995350647E-1,-1.701661377E0,1.179547119E-1,1.717375614E0
9.213651542E0,5.969586182E-1,-3.086431732E0,-1.670526123E-1,3.148067186E0
9.223691542E0,1.346599731E0,-5.153183899E0,-1.136885834E0,5.446204599E0
9.233730542E0,4.622387695E-1,-7.619305573E0,-2.474653931E0,8.024424849E0
9.243769542E0,-3.544928284E0,-9.355545044E0,-2.634820862E0,1.034577308E1
9.253808292E0,-8.871302032E0,-1.044468018E1,-1.922152863E0,1.383784721E1
9.263848292E0,-1.213885712E1,-1.360251343E1,-2.239043884E0,1.836827540E1
9.273887292E0,-1.547362244E1,-2.301823334E1,-5.296286316E0,2.823690327E1
9.283926292E0,-2.171414520E1,-3.672687607E1,-8.344397736E0,4.347409000E1
9.293966292E0,-2.735247025E1,-4.502067902E1,-7.394323425E0,5.319487933E1
9.304005292E0,-3.497896088E1,-4.463627838E1,-5.372926941E0,5.696308801E1
9.314044292E0,-3.358745453E1,-3.608291519E1,-6.136938171E0,4.967651236E1
9.324083292E0,-2.496942581E1,-2.779255508E1,-6.617289276E0,3.794320573E1
9.334123292E0,-2.056558365E1,-2.494233215E1,-6.074068909E0,3.289312203E1
9.344162292E0,-2.020752823E1,-2.362207764E1,-5.852230225E0,3.163218847E1
9.354201292E0,-1.973017090E1,-2.048729645E1,-5.221441956E0,2.891837505E1
9.364241292E0,-1.804587341E1,-1.643911469E1,-4.407734070E0,2.480576865E1
9.374280292E0,-1.362436798E1,-1.186851929E1,-3.284170532E0,1.836493749E1
9.384319292E0,-8.658893738E0,-8.090226288E0,-2.843187561E0,1.218654658E1
9.394358292E0,-5.024601288E0,-5.298082581E0,-2.640359344E0,7.764521531E0
9.404398292E0,-2.778372345E0,-3.213218079E0,-2.648442535E0,5.005833714E0
9.414437292E0,-1.366208954E0,-1.802401886E0,-2.550546112E0,3.408880305E0
9.424476292E0,-2.486329651E-1,-7.484436035E-1,-2.423011322E0,2.548130696E0
9.434516292E0,3.683839417E-1,1.034349060E-1,-2.430795135E0,2.460725604E0
9.444555292E0,4.782554626E-1,6.547384644E-1,-2.250569916E0,2.392169662E0
9.454594292E0,4.311035156E-1,7.563771057E-1,-2.078278198E0,2.253263597E0
9.464633292E0,4.472698975E-1,7.294331360E-1,-1.847907257E0,2.036390015E0
9.474673292E0,5.499563599E-1,7.644602966E-1,-1.238374786E0,1.555771080E0
9.484712292E0,6.623725891E-1,7.306306458E-1,-4.855902100E-1,1.099252673E0
9.494751292E0,7.101232910E-1,7.589218140E-1,5.298980713E-1,1.166631636E0
9.504791292E0,7.863148499E-1,7.800279236E-1,1.660496979E0,1.995992190E0
9.514830292E0,1.273551636E0,8.589138794E-1,2.972967682E0,3.346371716E0
9.524869292E0,2.284549255E0,1.069376221E0,5.004393311E0,5.604166594E0
9.534908292E0,3.598516846E0,1.368753662E0,7.152276764E0,8.122676467E0
9.544948292E0,4.933291168E0,1.652264099E0,8.567733307E0,1.002364167E1
9.554987292E0,5.963149567E0,1.683249664E0,8.453969879E0,1.048151177E1
9.565026292E0,6.393804016E0,1.357227631E0,7.206464081E0,9.729127463E0
9.575065292E0,6.325845337E0,9.839039612E-1,5.458848267E0,8.413287742E0
9.585105292E0,5.700894928E0,6.209088135E-1,3.708987122E0,6.829518007E0
9.595144292E0,4.917424164E0,3.887416077E-1,2.319576416E0,5.450927920E0
9.605183292E0,4.027824097E0,2.556683350E-1,1.288520508E0,4.236628182E0
9.615223292E0,2.948418732E0,1.475930786E-1,6.161187744E-1,3.015718667E0
9.625262292E0,1.937271423E0,8.457412720E-2,3.269201660E-1,1.966481667E0
9.635301292E0,1.259780273E0,5.164260864E-2,4.640350342E-3,1.260846870E0
9.645340292E0,8.177494812E-1,3.787124634E-2,-3.429368591E-1,8.875551446E-1
9.655380292E0,5.689668274E-1,-1.302291870E-2,-6.509962463E-1,8.646900947E-1
9.665419292E0,4.134402466E-1,-4.236190796E-2,-9.416917419E-1,1.029325364E0
9.675458292E0,2.989283752E-1,-5.134323120E-2,-1.117875366E0,1.158291688E0
9.685498292E0,2.300715637E-1,-3.532653809E-2,-1.220262451E0,1.242264601E0
9.695537292E0,2.073188782E-1,-2.769241333E-2,-1.282682648E0,1.299624085E0
9.705576292E0,2.113604736E-1,-4.281097412E-2,-1.231489105E0,1.250228557E0
9.715615292E0,1.919009399E-1,-2.888992310E-2,-1.134790192E0,1.151264252E0
9.725655292E0,1.660047913E-1,-1.347198486E-2,-1.013841705E0,1.027430819E0
9.735694292E0,1.570234680E-1,1.287322998E-2,-9.231303406E-1,9.364783581E-1
9.745733292E0,1.609153748E-1,1.272354126E-2,-7.954458618E-1,8.116586508E-1
9.755773292E0,1.083746338E-1,-8.173004150E-2,-6.135740662E-1,6.284090989E-1
9.765812292E0,7.125183105E-2,-2.288740540E-1,-4.082011414E-1,4.733796867E-1
9.775851292E0,5.987548828E-2,-3.323089600E-1,-2.924917603E-1,4.467278241E-1
9.785890292E0,5.493576050E-2,-4.378395081E-1,-1.675016785E-1,4.719938399E-1
9.795930292E0,1.496887207E-2,-5.927673340E-1,-1.466949463E-2,5.931377356E-1
9.805969292E0,7.244934082E-2,-7.927514648E-1,4.037104797E-1,8.925726544E-1
9.816008292E0,1.276844788E-1,-1.073417816E0,1.526226196E0,1.870266167E0
9.826048292E0,3.107537842E-1,-2.030677185E0,1.451381836E0,2.515298586E0
9.836087292E0,-1.003588028E1,-3.169583817E1,-1.840722198E0,3.329764719E1
9.846126292E0,-4.228392014E1,-1.577537993E2,1.197509766E-1,1.633223972E2
9.856165292E0,-1.425859909E1,-1.075493999E2,2.893033905E0,1.085290316E2
9.866205292E0,-7.988288269E0,-3.157399155E1,-2.819387054E0,3.269065058E1
9.876244292E0,-3.719016266E0,-1.141930344E1,-2.626887360E0,1.229358004E1
9.886283292E0,-4.125421143E0,-8.896300049E0,-2.828817444E0,1.020614826E1
9.896323292E0,-7.500901794E0,-1.063463516E1,-4.326752472E0,1.371421816E1
9.906362292E0,-1.009066635E1,-1.358170670E1,-6.092630310E0,1.798344929E1
9.916401292E0,-1.044393173E1,-1.614422791E1,-6.732998657E0,2.037265509E1
9.926440292E0,-9.806108093E0,-1.531180893E1,-7.122339020E0,1.952790213E1
9.936480292E0,-8.326734467E0,-1.104642883E1,-7.690707092E0,1.582735203E1
9.946519292E0,-6.609355774E0,-7.225025482E0,-7.543862457E0,1.236100472E1
9.956558292E0,-4.147724762E0,-4.569846954E0,-6.630162506E0,9.057934463E0
9.966598292E0,-1.998194733E0,-2.391876068E0,-5.476062469E0,6.300881961E0
9.976637292E0,-1.009949799E0,-8.234376526E-1,-4.415218506E0,4.603498954E0
9.986676292E0,-7.086264038E-1,-1.621128845E-1,-3.619473267E0,3.691750086E0
9.996715292E0,-7.321275330E-1,-1.483415222E-1,-3.113226013E0,3.201592126E0
1.000675529E1,-4.709207153E-1,-3.218307495E-1,-2.757415924E0,2.815791883E0
1.001679429E1,-1.990859985E-1,-6.453080750E-1,-2.417023773E0,2.509593925E0
1.002683329E1,-1.496887207E-3,-9.279203796E-1,-2.155667267E0,2.346900048E0
1.003687229E1,-2.350112915E-2,-1.233734436E0,-1.974094849E0,2.328025651E0
1.004691229E1,-3.996688843E-1,-1.758842468E0,-1.857936401E0,2.589438108E0
1.005695129E1,-9.192384338E-1,-2.542313232E0,-1.877545624E0,3.291433341E0
1.006699029E1,-1.592538300E0,-3.716621246E0,-1.897304535E0,4.466454547E0
1.007703029E1,-2.640209656E0,-5.259911957E0,-1.925446014E0,6.192311618E0
1.008706929E1,-3.925736389E0,-7.154372406E0,-1.931583252E0,8.386147183E0
1.009710829E1,-5.247637482E0,-9.336384888E0,-1.916764069E0,1.088024662E1
1.010714729E1,-6.343957672E0,-1.157378220E1,-1.779798889E0,1.331787961E1
1.011718729E1,-7.093598785E0,-1.314835785E1,-1.470991058E0,1.501207089E1
1.012722629E1,-6.804250488E0,-1.318548065E1,-1.068029022E0,1.487600117E1
1.013726529E1,-6.344406738E0,-1.225756027E1,-7.292834473E-1,1.382140134E1
1.014730529E1,-5.819747772E0,-1.057446030E1,-4.926255798E-1,1.208020508E1
1.015734429E1,-5.551056519E0,-8.855435028E0,-1.757345581E-1,1.045293455E1
1.016738329E1,-5.636828156E0,-7.661667480E0,2.757266235E-1,9.515829202E0
1.017742229E1,-5.668113098E0,-6.975344696E0,6.935078430E-1,9.014648792E0
1.018746229E1,-5.445825348E0,-6.482270050E0,1.099313965E0,8.537290549E0
1.019750129E1,-5.043162689E0,-5.975424042E0,1.345701599E0,7.934109602E0
1.020754029E1,-4.595593414E0,-5.410349121E0,1.549427948E0,7.265816087E0
1.021758029E1,-4.103566589E0,-4.816384277E0,1.581910400E0,6.522212567E0
1.022761929E1,-3.549418945E0,-4.317920837E0,1.587299194E0,5.810536459E0
1.023765829E1,-2.953508148E0,-3.788022766E0,1.598974915E0,5.062513964E0
1.024769729E1,-2.360291748E0,-3.202141113E0,1.600471802E0,4.287912643E0
1.025773733E1,-1.795366516E0,-2.610271912E0,1.572480011E0,3.536884754E0
1.026777633E1,-1.254840546E0,-2.048490143E0,1.495240631E0,2.829607960E0
1.027781533E1,-8.051756287E-1,-1.541045380E0,1.415755920E0,2.242207279E0
1.028785533E1,-6.676116943E-1,-1.125958557E0,1.407523041E0,1.922136612E0
1.029789433E1,-5.298980713E-1,-8.728349304E-1,1.405577087E0,1.737319697E0
1.030793333E1,-4.552033997E-1,-8.915460205E-1,1.410666504E0,1.729752707E0
1.031797233E1,-1.020877075E-1,-1.391206970E0,1.298699341E0,1.905911517E0
1.032801233E1,4.954696655E-1,-2.916385345E0,9.830058289E-1,3.117225390E0
1.033805133E1,9.035211182E-1,-5.664969635E0,2.683918762E-1,5.742844729E0
1.034809033E1,2.198927307E-1,-9.133706360E0,-1.742676086E0,9.301067929E0
1.035812933E1,-3.862717438E0,-1.182046921E1,-2.747835846E0,1.273556752E1
1.036816933E1,-1.134835098E1,-1.378079269E1,-1.972448273E0,1.796067564E1
1.037820833E1,-1.653491547E1,-1.871722733E1,-2.071392517E0,2.506050070E1
1.038824733E1,-1.856963425E1,-3.023427750E1,-5.593867493E0,3.591983025E1
1.039828733E1,-2.196068253E1,-4.068958557E1,-8.471333771E0,4.700720633E1
1.040832633E1,-2.794508789E1,-4.358755920E1,-7.124584351E0,5.226435647E1
1.041836533E1,-3.004192749E1,-4.138384186E1,-5.285359039E0,5.141084316E1
1.042840433E1,-2.962160156E1,-3.451702148E1,-3.287014618E0,4.560338273E1
1.043844433E1,-2.431693268E1,-2.728002090E1,-2.949765930E0,3.666352240E1
1.044848333E1,-2.072679840E1,-2.375275589E1,-3.713178406E0,3.174242080E1
1.045852233E1,-2.069117249E1,-2.346265915E1,-3.839515686E0,3.151765971E1
1.046856133E1,-1.902932831E1,-2.179871933E1,-3.630550232E0,2.916299702E1
1.047860133E1,-1.381088013E1,-1.706735825E1,-3.113824768E0,2.217500918E1
1.048864033E1,-8.979976044E0,-1.213825836E1,-2.401755524E0,1.528874473E1
1.049867933E1,-5.474116516E0,-8.165819092E0,-2.138153687E0,1.006072832E1
1.050871933E1,-3.056044922E0,-5.098697205E0,-2.110012207E0,6.307794802E0
1.051875833E1,-1.285227356E0,-2.993475037E0,-1.814227295E0,3.728823250E0
1.052879733E1,-2.130070496E-1,-1.456920319E0,-1.302591248E0,1.965892361E0
1.053883633E1,3.173400879E-1,-3.992198181E-1,-9.744735718E-1,1.099854507E0
1.054887633E1,4.852908325E-1,2.492317200E-1,-6.867718506E-1,8.770856384E-1
1.055891533E1,4.427792358E-1,4.442761230E-1,-5.751040649E-1,8.509873152E-1
1.056895433E1,4.577481079E-1,4.267625427E-1,-5.065466309E-1,8.051391727E-1
1.057899433E1,5.760021973E-1,4.638853455E-1,-2.549198914E-1,7.822737986E-1
1.058903333E1,6.514453125E-1,5.138813782E-1,2.612068176E-1,8.698758921E-1
1.059907233E1,9.139993286E-1,5.517526245E-1,1.115929413E0,1.544384727E0
1.060911133E1,1.219813385E0,6.819818115E-1,2.144889679E0,2.559999145E0
1.061915133E1,1.280137939E0,6.818321228E-1,3.209475861E0,3.521985731E0
1.062919033E1,1.815724182E0,8.095166016E-1,4.043990479E0,4.506221302E0
1.063922933E1,2.578687592E0,1.004860382E0,4.749473419E0,5.496987524E0
1.064926933E1,3.486399994E0,1.210832062E0,5.391937408E0,6.534071335E0
1.065930833E1,4.208797760E0,1.294807434E0,5.339845734E0,6.921304598E0
1.066934733E1,4.669839020E0,1.252744904E0,4.659211121E0,6.714537551E0
1.067938633E1,5.231171722E0,1.230441284E0,3.761378174E0,6.559505249E0
1.068942633E1,5.616171112E0,1.194066925E0,2.906356201E0,6.435377234E0
1.069946533E1,5.456453247E0,1.142574005E0,2.074236603E0,5.948177442E0
1.070950433E1,4.825814667E0,1.028361511E0,1.338815918E0,5.112576910E0
1.071954333E1,3.765719147E0,7.967930603E-1,7.523355103E-1,3.921929193E0
1.072958333E1,2.630479889E0,5.135820007E-1,2.905458069E-1,2.695850104E0
1.073962233E1,1.755549316E0,2.689906311E-1,-1.739382935E-1,1.784534643E0
1.074966133E1,1.144370270E0,9.610015869E-2,-5.105882263E-1,1.256789120E0
1.075970133E1,8.369096375E-1,-9.430389404E-3,-7.732919312E-1,1.139511775E0
1.076974033E1,6.671626282E-1,-3.038681030E-2,-9.340576172E-1,1.148256488E0
1.077977933E1,5.219645691E-1,-1.751358032E-2,-9.657916260E-1,1.097955920E0
1.078981833E1,4.019142151E-1,-2.544708252E-2,-9.084608459E-1,9.937221437E-1
1.079985833E1,2.944377136E-1,-1.227447510E-2,-8.247848511E-1,8.758506040E-1
1.080989733E1,2.597099304E-1,2.499801636E-2,-8.159532166E-1,8.566526720E-1
1.081993633E1,2.326162720E-1,8.876541138E-2,-8.147557068E-1,8.519486428E-1
1.082997633E1,2.192939758E-1,1.134640503E-1,-7.849676514E-1,8.228840454E-1
1.084001533E1,2.089654541E-1,1.097218323E-1,-7.131170654E-1,7.511600299E-1
1.085005433E1,1.984872437E-1,1.275347900E-1,-6.385720825E-1,6.807617888E-1
1.086009333E1,1.791773987E-1,1.609153748E-1,-5.438191223E-1,5.947583844E-1
1.087013333E1,1.640588379E-1,1.365161133E-1,-4.177812195E-1,4.691408092E-1
1.088017233E1,1.354682922E-1,1.043330383E-1,-3.071612549E-1,3.515466933E-1
1.089021133E1,6.391708374E-2,-5.358856201E-2,-1.800755310E-1,1.984548423E-1
1.090025033E1,5.089416504E-2,-2.242337036E-1,-5.164260864E-2,2.356648656E-1
1.091029033E1,1.297801208E-1,-2.773731995E-1,5.448669434E-2,3.110427164E-1
1.092032933E1,1.559756470E-1,-2.984793091E-1,2.728825378E-1,4.334549341E-1
1.093036833E1,1.923500061E-1,-3.844006348E-1,7.372169495E-1,8.533763551E-1
1.094040833E1,2.513273621E-1,-8.032296753E-1,1.778152313E0,1.967274511E0
1.095044733E1,3.562591553E-1,-1.892813873E0,3.772006073E0,4.235291579E0
1.096048633E1,2.933898926E-1,-3.824546814E0,6.148015137E0,7.246469905E0
1.097052533E1,-7.557184753E0,-5.132646606E1,-3.974534912E0,5.203185647E1
1.098056533E1,-1.941462708E0,-1.765169810E2,-1.281664764E1,1.769923172E2
1.099060433E1,8.569679260E0,-1.101786823E2,-2.313588867E0,1.105356690E2
1.100064333E1,-9.659263458E0,-3.369148819E1,1.138532410E0,3.506727824E1
1.101068333E1,-4.056714020E0,-1.307396255E1,-5.774990845E-1,1.370105582E1
1.102072233E1,-2.683469696E0,-1.018841309E1,-7.421566772E-1,1.056198690E1
1.103076133E1,-3.386557617E0,-9.318721619E0,-9.190887451E-1,9.957513205E0
1.104080033E1,-5.057532806E0,-1.049737061E1,-2.789000244E0,1.198131671E1
1.105084033E1,-6.192173309E0,-1.118294495E1,-5.146148529E0,1.377984443E1
1.106087933E1,-5.854475555E0,-9.649533691E0,-5.951324158E0,1.275957067E1
1.107091833E1,-4.540358276E0,-7.116052094E0,-5.889053650E0,1.029242457E1
1.108095733E1,-3.138673096E0,-4.874762878E0,-5.551206207E0,8.026859428E0
1.109099733E1,-2.163151703E0,-2.962938538E0,-5.148992615E0,6.322211244E0
1.110103633E1,-1.483564911E0,-1.280736694E0,-4.336182861E0,4.758543173E0
1.111107533E1,-6.695576477E-1,-2.812651062E-1,-3.373085632E0,3.450380296E0
1.112111533E1,-2.962339783E-1,3.430865479E-1,-2.657423859E0,2.695804984E0
1.113115433E1,-1.550775146E-1,6.378236389E-1,-2.248324585E0,2.342185191E0
1.114119333E1,1.481918335E-2,6.342311096E-1,-2.077380066E0,2.172090386E0
1.115123233E1,1.297801208E-1,5.656736755E-1,-2.099683685E0,2.178417124E0
1.116127233E1,2.911445618E-1,4.390370178E-1,-2.067051544E0,2.133124644E0
1.117131133E1,4.219725037E-1,3.254232788E-1,-1.907483368E0,1.980518594E0
1.118135033E1,5.559439087E-1,1.648072815E-1,-1.791324921E0,1.882838294E0
1.119138933E1,5.481600952E-1,-3.469784546E-1,-1.738335114E0,1.855446713E0
1.120142933E1,-1.013392639E-1,-1.233435059E0,-1.979633331E0,2.334647686E0
1.121146833E1,-1.032702484E0,-2.541265411E0,-2.310146027E0,3.586262536E0
1.122150733E1,-2.425705719E0,-4.883594513E0,-2.319426727E0,5.925646289E0
1.123154733E1,-4.376598816E0,-8.471034393E0,-2.235301666E0,9.793345416E0
1.124158633E1,-6.778803406E0,-1.361733261E1,-1.846560059E0,1.532297971E1
1.125162554E1,-8.838520203E0,-1.891945679E1,-8.900491333E-1,2.090113566E1
1.126166454E1,-9.738598480E0,-2.170965454E1,3.385958862E-1,2.379630324E1
1.127170454E1,-8.918154602E0,-2.064970871E1,1.014141083E0,2.251604835E1
1.128174354E1,-7.151378632E0,-1.752750137E1,1.436562653E0,1.898471051E1
1.129178254E1,-5.455106049E0,-1.412193329E1,1.875749359E0,1.525469165E1
1.130182254E1,-4.546944580E0,-1.129730713E1,2.365979919E0,1.240571297E1
1.131186154E1,-4.168082428E0,-9.402098236E0,2.866688690E0,1.067662243E1
1.132190054E1,-3.732039185E0,-8.458460541E0,3.087479553E0,9.747112454E0
1.133193954E1,-3.045566711E0,-7.831863556E0,2.558329926E0,8.783997687E0
1.134197954E1,-2.426304474E0,-7.317533112E0,1.492995300E0,7.852533299E0
1.135201854E1,-2.049238586E0,-6.735842743E0,5.188211060E-1,7.059754357E0
1.136205754E1,-1.824705505E0,-6.062093811E0,3.128494263E-2,6.330838041E0
1.137209654E1,-1.691781921E0,-5.375621338E0,-1.658551025E-1,5.637990666E0
1.138213654E1,-1.492546234E0,-4.700076141E0,-1.264869690E-1,4.932991886E0
1.139217554E1,-1.268312531E0,-4.044888611E0,8.247848511E-2,4.239875381E0
1.140221454E1,-9.843530273E-1,-3.456462250E0,4.135899353E-1,3.617615071E0
1.141225454E1,-6.837780762E-1,-2.971021729E0,7.330256653E-1,3.135577968E0
1.142229354E1,-3.685336304E-1,-2.676134949E0,9.731263733E-1,2.871322037E0
1.143233254E1,-2.703378296E-1,-2.518961792E0,1.149309998E0,2.781935391E0
1.144237154E1,-2.067201233E-1,-2.436483307E0,1.225202179E0,2.735014533E0
1.145241154E1,-1.496887207E-4,-2.386636963E0,1.241518250E0,2.690242290E0
1.146245054E1,3.891906738E-1,-2.358196106E0,1.238973541E0,2.692139241E0
1.147248954E1,8.150550842E-1,-2.561772766E0,1.124910736E0,2.914175468E0
1.148252854E1,1.549577637E0,-3.098706207E0,8.601113892E-1,3.569728647E0
1.149256854E1,2.360142059E0,-4.269870758E0,2.966830444E-1,4.887748731E0
1.150260754E1,2.071991272E0,-6.040688324E0,-9.108558655E-1,6.450792329E0
1.151264654E1,1.049317932E0,-8.596473541E0,-3.209475861E0,9.235862752E0
1.152268654E1,-3.473077698E0,-1.174831924E1,-4.928650818E0,1.320518355E1
1.153272554E1,-1.053269714E1,-1.509760437E1,-4.177363129E0,1.887659211E1
1.154276454E1,-1.336061646E1,-2.306044556E1,-3.593876495E0,2.689249281E1
1.155280354E1,-1.268686752E1,-3.891098419E1,-3.915707245E0,4.111391567E1
1.156284354E1,-1.329639999E1,-5.460315216E1,-5.248535614E0,5.644329548E1
1.157288254E1,-1.561058762E1,-5.460809189E1,-5.403762817E0,5.705203588E1
1.158292154E1,-1.592403580E1,-4.676589981E1,-4.462819519E0,4.960384117E1
1.159296054E1,-1.584769455E1,-3.839979721E1,-3.986360321E0,4.173230064E1
1.160300054E1,-1.253747818E1,-3.100023468E1,-3.417543182E0,3.361372504E1
1.161303954E1,-9.605525208E0,-2.692436050E1,-3.087030487E0,2.875268788E1
1.162307854E1,-8.192613373E0,-2.404045761E1,-2.442919922E0,2.551529686E1
1.163311854E1,-7.351811829E0,-2.117406830E1,-1.991159363E0,2.250233368E1
1.164315754E1,-5.145250397E0,-1.683728668E1,-1.702409821E0,1.768801921E1
1.165319654E1,-2.708018646E0,-1.188094345E1,-1.781894531E0,1.231524788E1
1.166323554E1,-1.274449768E0,-7.787256317E0,-2.063459015E0,8.156190671E0
1.167327554E1,-4.607418823E-1,-4.718787231E0,-2.009571075E0,5.149525408E0
1.168331454E1,-1.505868530E-1,-2.547103271E0,-1.856589203E0,3.155524512E0
1.169335354E1,9.729766846E-3,-1.049617310E0,-1.694326630E0,1.993121645E0
1.170339254E1,9.759704590E-2,-1.841171265E-2,-1.511706390E0,1.514965473E0
1.171343254E1,1.790277100E-1,3.842509460E-1,-1.517993317E0,1.576072149E0
1.172347154E1,2.110610962E-1,4.429289246E-1,-1.398541718E0,1.482110574E0
1.173351054E1,2.522254944E-1,4.614903259E-1,-1.231489105E0,1.339087912E0
1.174355054E1,2.432441711E-1,4.351451111E-1,-9.553134155E-1,1.077563324E0
1.175358954E1,2.230361938E-1,4.278103638E-1,-5.840853882E-1,7.575767894E-1
1.176362854E1,1.963916016E-1,4.611909485E-1,-3.382965088E-1,6.047406717E-1
1.177366754E1,1.829196167E-1,5.144801331E-1,1.496887207E-4,5.460305998E-1
1.178370754E1,1.598675537E-1,6.445596313E-1,3.923341370E-1,7.713240746E-1
1.179374654E1,8.592132568E-2,8.774752808E-1,6.743476868E-1,1.109995561E0
1.180378554E1,6.227050781E-2,1.076411591E0,9.466314697E-1,1.434799870E0
1.181382454E1,1.478924561E-1,1.133143616E0,1.412013702E0,1.816499196E0
1.182386454E1,2.294728088E-1,1.182241516E0,2.244582367E0,2.547253967E0
1.183390354E1,5.104385376E-1,1.269659729E0,3.584745483E0,3.837054014E0
1.184394254E1,9.886940002E-1,1.431622925E0,5.033432922E0,5.325646159E0
1.185398254E1,1.553020477E0,1.534159698E0,6.235583038E0,6.606664394E0
1.186402154E1,2.121388550E0,1.570833435E0,7.057523804E0,7.535014884E0
1.187406054E1,2.561623077E0,1.532662811E0,7.028334503E0,7.635997248E0
1.188409954E1,2.712808685E0,1.480122070E0,6.238427124E0,6.961900982E0
1.189413954E1,2.620450745E0,1.354383545E0,4.927752686E0,5.743157966E0
1.190417854E1,2.387984161E0,1.245559845E0,3.630550232E0,4.520484783E0
1.191421754E1,1.966460724E0,1.160386963E0,2.473755798E0,3.366442251E0
1.192425654E1,1.553170166E0,1.032852173E0,1.629960480E0,2.477073342E0
1.193429654E1,1.275048523E0,9.388476562E-1,1.079105988E0,1.916155889E0
1.194433554E1,9.595046997E-1,8.659492493E-1,5.766009521E-1,1.415268889E0
1.195437454E1,6.936575317E-1,7.689509583E-1,1.919009399E-1,1.053219976E0
1.196441454E1,5.676196289E-1,7.358697510E-1,-6.496490479E-2,9.316205088E-1
1.197445354E1,4.748126221E-1,7.005432129E-1,-2.860551453E-1,8.933282517E-1
1.198449254E1,4.113446045E-1,6.354286194E-1,-4.745132446E-1,8.933849861E-1
1.199453154E1,4.602928162E-1,5.562432861E-1,-7.134164429E-1,1.015006941E0
1.200457154E1,5.216651917E-1,5.477110291E-1,-8.875044250E-1,1.166098644E0
1.201461054E1,6.171665955E-1,5.568420410E-1,-8.394543457E-1,1.181376851E0
1.202464954E1,6.541397095E-1,5.420228577E-1,-6.801855469E-1,1.088273824E0
1.203468854E1,5.987548828E-1,4.481680298E-1,-4.857398987E-1,8.917988797E-1
1.204472854E1,4.779560852E-1,4.385879517E-2,-2.272274780E-1,5.310347824E-1
1.205476754E1,3.782633972E-1,-3.585044861E-1,-9.280700684E-3,5.212435089E-1
1.206480654E1,3.141966248E-1,-5.529501343E-1,4.448748779E-1,7.761359591E-1
1.207484654E1,2.487826538E-1,-8.096662903E-1,1.222807159E0,1.487517953E0
1.208488554E1,2.709365845E-1,-1.010548553E0,2.383643188E0,2.603146147E0
1.209492454E1,4.025129700E-1,-1.357826385E0,3.274291077E0,3.567448842E0
1.210496354E1,1.155447235E0,-2.626138916E0,2.750679932E0,3.974657722E0
1.211500354E1,2.070494385E0,-5.806575165E0,3.297941895E0,6.991400638E0
1.212504254E1,-6.773414612E0,-5.991081482E1,-9.718240814E0,6.107068922E1
1.213508154E1,-3.420207642E1,-1.806859616E2,-1.779319885E1,1.847533401E2
1.214512054E1,-1.630619110E1,-1.131369804E2,2.703977051E0,1.143380064E2
1.215516054E1,-1.153531219E1,-3.602917694E1,-2.014211426E0,3.788432481E1
1.216519954E1,-4.153712311E0,-9.219627686E0,-1.111887817E0,1.017306026E1
1.217523854E1,-1.620829468E0,-3.906576233E0,-3.369493103E-1,4.242871771E0
1.218527854E1,-1.955084381E0,-1.772015076E0,1.296304321E-1,2.641816878E0
1.219531754E1,-3.105741577E0,-1.482816467E0,-2.210902405E-1,3.448660075E0
1.220535654E1,-3.283272400E0,-1.258133698E0,-1.123713226E0,3.691274775E0
1.221539554E1,-3.154540100E0,-1.031205597E0,-1.804647217E0,3.777732098E0
1.222543554E1,-2.609373779E0,-4.474195862E-1,-2.866838379E0,3.902278578E0
1.223547454E1,-1.563498688E0,4.673281860E-1,-3.514092407E0,3.874502449E0
1.224551354E1,-9.051676941E-1,1.551224213E0,-3.506009216E0,3.939254465E0
1.225555208E1,-8.414002991E-1,2.318229218E0,-3.501368866E0,4.282724028E0
1.226559208E1,-7.006929016E-1,2.557132416E0,-3.215313721E0,4.167509935E0
1.227563108E1,-5.324427795E-1,2.292482758E0,-2.995121613E0,3.809163423E0
1.228567008E1,-5.176235962E-1,1.955234070E0,-2.874622192E0,3.514872288E0
1.229570908E1,-6.116281128E-1,1.528321838E0,-2.859204254E0,3.299228024E0
1.230574908E1,-7.408094788E-1,1.027014313E0,-2.823278961E0,3.094262622E0
1.231578808E1,-1.137334900E0,2.960842896E-1,-2.701881409E0,2.946414724E0
1.232582708E1,-1.827549591E0,-6.117778015E-1,-2.617307281E0,3.250308753E0
1.233586708E1,-2.766696625E0,-1.657353516E0,-2.542462921E0,4.106768632E0
1.234590608E1,-4.030219116E0,-3.112028503E0,-2.528691559E0,5.685214906E0
1.235594508E1,-6.266568604E0,-5.733676758E0,-2.102228394E0,8.750102596E0
1.236598408E1,-1.012958542E1,-9.923613739E0,-1.153201904E0,1.422731475E1
1.237602408E1,-1.515568359E1,-1.592044327E1,-1.682501221E-1,2.198143688E1
1.238606308E1,-1.851978790E1,-2.169318878E1,1.972897339E-1,2.852395321E1
1.239610208E1,-1.682620972E1,-2.339649673E1,-4.647834778E-1,2.882244640E1
1.240614108E1,-1.205563019E1,-2.006562332E1,-7.357200623E-1,2.342026350E1
1.241618108E1,-7.567962341E0,-1.466979401E1,6.197113037E-2,1.650699096E1
1.242622008E1,-4.463567963E0,-1.015922379E1,1.882036285E0,1.125501344E1
1.243625908E1,-3.336860962E0,-7.937394104E0,4.176165619E0,9.569599026E0
1.244629908E1,-2.691702576E0,-7.254065094E0,6.138884125E0,9.876873060E0
1.245633808E1,-1.719174957E0,-7.187603302E0,6.267766113E0,9.690309376E0
1.246637708E1,-5.944139099E-1,-7.181166687E0,4.502037964E0,8.496518623E0
1.247641608E1,-4.799020386E-1,-7.119644623E0,3.434458008E0,7.919289572E0
1.248645608E1,-9.383985901E-1,-6.872508545E0,3.420387268E0,7.733758121E0
1.249649508E1,-1.377136230E0,-6.407126312E0,3.546275482E0,7.451432183E0
1.250653408E1,-1.734742584E0,-5.754483490E0,3.394341431E0,6.902533290E0
1.251657308E1,-1.748813324E0,-4.971012726E0,2.774031372E0,5.955213314E0
1.252661308E1,-1.226848755E0,-4.226461029E0,2.039359131E0,4.850475890E0
1.253665208E1,-4.688250732E-1,-3.600013733E0,1.406475220E0,3.893336406E0
1.254669108E1,-3.225791931E-1,-3.022065582E0,1.134790192E0,3.244177322E0
1.255673008E1,-8.412506104E-2,-2.439626770E0,1.002165985E0,2.638786173E0
1.256677008E1,2.610571289E-1,-2.009571075E0,1.027613068E0,2.272116931E0
1.257680908E1,4.562512207E-1,-1.638792114E0,1.124761047E0,2.039336212E0
1.258684808E1,5.676196289E-1,-1.336271210E0,8.674461365E-1,1.691234930E0
1.259688808E1,5.598358154E-1,-1.319057007E0,3.986210632E-1,1.487355465E0
1.260692708E1,6.538403320E-1,-1.736987915E0,-2.469863892E-1,1.872334498E0
1.261696608E1,8.544232178E-1,-2.780617676E0,-9.708810425E-1,3.066673066E0
1.262700508E1,5.343887329E-1,-4.840783539E0,-2.555186462E0,5.499794037E0
1.263704508E1,-7.279362488E-1,-8.247549133E0,-5.648354187E0,1.002276723E1
1.264708408E1,-4.811594238E0,-1.168724625E1,-8.235723724E0,1.508543368E1
1.265712308E1,-1.897723663E1,-1.544922318E1,-1.134191437E1,2.697133717E1
1.266716208E1,-2.762834656E1,-1.652788010E1,-1.069451065E1,3.392445891E1
1.267720208E1,-1.107427094E1,-1.515418671E1,-6.168971558E0,1.975715216E1
1.268724108E1,-5.082979889E0,-2.765065018E1,-1.122321121E1,3.027136617E1
1.269728008E1,-1.140433456E1,-4.314942032E1,-1.658221710E1,4.761198636E1
1.270731908E1,-2.219569382E1,-4.908188370E1,-1.486319183E1,5.588018077E1
1.271735908E1,-2.478186584E1,-4.341556686E1,-7.564669189E0,5.055963351E1
1.272739808E1,-2.170860672E1,-3.409145645E1,-2.763403473E0,4.051083074E1
1.273743708E1,-1.751717285E1,-2.894141602E1,-2.566263428E0,3.392701893E1
1.274747708E1,-1.458252548E1,-2.709141312E1,-3.532204742E0,3.096887445E1
1.275751608E1,-1.410846130E1,-2.407308975E1,-3.190914459E0,2.808459125E1
1.276755508E1,-1.357272537E1,-1.956207047E1,-2.568359070E0,2.394765006E1
1.277759408E1,-1.249137405E1,-1.564411789E1,-2.008822632E0,2.011984639E1
1.278763408E1,-9.557624817E0,-1.200084412E1,-1.306483154E0,1.539725137E1
1.279767308E1,-6.414910126E0,-8.360264740E0,-8.738827515E-1,1.057396659E1
1.280771208E1,-4.163142700E0,-5.546565857E0,-7.352709961E-1,6.974006982E0
1.281775108E1,-2.715952148E0,-3.403023376E0,-6.063890076E-1,4.395983599E0
1.282779108E1,-1.674867096E0,-1.746567993E0,-5.379812622E-1,2.478931904E0
1.283783008E1,-8.503816223E-1,-5.180726624E-1,-3.326083374E-1,1.049845938E0
1.284786908E1,-2.974314880E-1,3.794609070E-1,-8.397537231E-2,4.893954773E-1
1.285790808E1,-5.987548828E-2,9.141490173E-1,6.840774536E-2,9.186583258E-1
1.286794808E1,-5.777984619E-2,1.004261627E0,2.195933533E-1,1.029612144E0
1.287798708E1,-2.903961182E-2,1.067879333E0,4.260140991E-1,1.150085902E0
1.288802608E1,1.291813660E-1,1.201102295E0,8.261320496E-1,1.463498791E0
1.289806508E1,3.251239014E-1,1.263073425E0,1.364562378E0,1.887615033E0
1.290810508E1,4.986131287E-1,1.261726227E0,1.838776245E0,2.285096541E0
1.291814408E1,6.903643799E-1,1.198557587E0,2.498903503E0,2.856162108E0
1.292818308E1,7.581733704E-1,1.107247467E0,3.055146790E0,3.336876641E0
1.293822308E1,9.602531433E-1,1.067430267E0,3.411555634E0,3.701378840E0
1.294826208E1,1.280886383E0,1.196012878E0,3.952231293E0,4.323337706E0
1.295830108E1,1.887425079E0,1.460213470E0,4.619244232E0,5.199232067E0
1.296834008E1,2.618055725E0,1.749412079E0,5.114713898E0,6.006243140E0
1.297838008E1,3.191213837E0,1.796713715E0,5.136568451E0,6.308435731E0
1.298841908E1,3.564687195E0,1.807191925E0,4.813240814E0,6.256214877E0
1.299845808E1,3.719914398E0,1.743125153E0,4.119732971E0,5.817941920E0
1.300849708E1,3.595822449E0,1.608405304E0,3.265609131E0,5.116747961E0
1.301853708E1,3.314856720E0,1.402583313E0,2.507585449E0,4.386741366E0
1.302857608E1,2.977458344E0,1.160237274E0,1.898951111E0,3.717179581E0
1.303861508E1,2.653082886E0,9.228309631E-1,1.550475769E0,3.208495114E0
1.304865508E1,2.301015015E0,7.457492065E-1,1.152453461E0,2.679358310E0
1.305869408E1,1.907483368E0,5.514532471E-1,7.403604126E-1,2.119133555E0
1.306873308E1,1.564247131E0,3.730242920E-1,4.531077576E-1,1.670725247E0
1.307877208E1,1.332678680E0,2.583627319E-1,1.886077881E-1,1.370531526E0
1.308881208E1,1.208586731E0,2.007325745E-1,7.304809570E-2,1.227318816E0
1.309885108E1,1.057401123E0,1.904040527E-1,2.933898926E-2,1.074807711E0
1.310889008E1,8.809181213E-1,1.718426514E-1,-2.128573608E-1,9.224179581E-1
1.311892908E1,8.448431396E-1,2.080673218E-1,-7.267387390E-1,1.133667119E0
1.312896908E1,8.756790161E-1,2.836601257E-1,-1.083596649E0,1.421780048E0
1.313900808E1,8.991801453E-1,3.158432007E-1,-1.267863464E0,1.586114632E0
1.314904708E1,9.009764099E-1,3.397933960E-1,-1.220561829E0,1.554666916E0
1.315908608E1,8.065228271E-1,2.945874023E-1,-9.589059448E-1,1.287152446E0
1.316912608E1,7.137158203E-1,1.878593445E-1,-5.782475281E-1,9.375775217E-1
1.317916508E1,3.998185730E-1,-2.098635864E-1,-5.897735596E-2,4.553854903E-1
1.318920408E1,2.163002014E-1,-4.466711426E-1,3.583547974E-1,6.121429960E-1
1.319924308E1,1.531315613E-1,-4.867877197E-1,6.397695923E-1,8.183622000E-1
1.320928308E1,1.691482544E-1,-5.863307190E-1,1.254840546E0,1.395356456E0
1.321932208E1,2.100132751E-1,-8.178991699E-1,2.309996338E0,2.459501516E0
1.322936108E1,5.034031677E-1,-1.647474060E0,5.012626190E0,5.300377991E0
1.323940108E1,7.717950439E-1,-3.799848175E0,8.310717773E0,9.170743899E0
1.324944008E1,-4.662354584E0,-2.403147629E1,1.823657684E0,2.454740577E1
1.325947946E1,-3.778951630E1,-1.640455156E2,-9.597142639E0,1.686151947E2
1.326951846E1,-1.358993958E1,-1.312066544E2,-1.055006104E0,1.319127956E2
1.327955846E1,-1.700239334E1,-4.800861557E1,-3.054997101E0,5.102197130E1
1.328959746E1,-6.918462982E0,-1.569246735E1,-1.402433624E0,1.720713461E1
1.329963646E1,-3.365750885E0,-6.895410919E0,-1.272952881E0,7.777877590E0
1.330967546E1,-4.269421692E0,-5.754782867E0,-1.516346741E0,7.324260705E0
1.331971546E1,-6.037993927E0,-5.665867767E0,-2.232307892E0,8.575699782E0
1.332975446E1,-6.221512299E0,-5.931265869E0,-2.898871765E0,9.071415965E0
1.333979346E1,-5.179229736E0,-6.268514557E0,-3.526366882E0,8.863067122E0
1.334983246E1,-3.661685486E0,-5.931265869E0,-3.289709015E0,7.707790916E0
1.335987246E1,-2.474354553E0,-4.859195251E0,-2.661315765E0,6.067685766E0
1.336991146E1,-1.552721100E0,-3.622766418E0,-2.208956451E0,4.518281525E0
1.337995046E1,-1.013841705E0,-2.526745605E0,-1.895208893E0,3.317248122E0
1.338998946E1,-8.481362915E-1,-1.625769196E0,-1.670975189E0,2.480850404E0
1.340002946E1,-9.523196411E-1,-8.316705322E-1,-1.522483978E0,1.979026538E0
1.341006846E1,-1.375938721E0,-1.405577087E-1,-1.562600555E0,2.086788041E0
1.342010746E1,-1.592837677E0,4.110452271E-1,-1.384021912E0,2.149792245E0
1.343014746E1,-1.815424805E0,7.696994019E-1,-1.423689423E0,2.432097030E0
1.344018646E1,-1.952389984E0,8.463400269E-1,-1.464255066E0,2.583052649E0
1.345022546E1,-2.149380341E0,5.734574890E-1,-1.696272583E0,2.797504248E0
1.346026446E1,-2.295925598E0,3.218307495E-2,-2.004781036E0,3.048189152E0
1.347030446E1,-2.648891602E0,-8.617579651E-1,-2.112556915E0,3.496019197E0
1.348034346E1,-3.521127777E0,-2.254611511E0,-1.998643799E0,4.634241138E0
1.349038246E1,-4.677024078E0,-3.855532379E0,-1.888921967E0,6.348835354E0
1.350042146E1,-6.004613342E0,-5.896687775E0,-1.763183441E0,8.598553596E0
1.351046146E1,-7.734116821E0,-8.627010040E0,-1.581161957E0,1.169367087E1
1.352050046E1,-9.621691589E0,-1.182840271E1,-1.275198212E0,1.530079051E1
1.353053946E1,-1.114058304E1,-1.514789978E1,-1.028960266E0,1.883162811E1
1.354057846E1,-1.112052475E1,-1.746642838E1,-7.539820862E-1,2.071981370E1
1.355061846E1,-9.509275360E0,-1.737092697E1,-3.396437073E-1,1.980633180E1
1.356065746E1,-7.465874634E0,-1.548350189E1,3.847000122E-1,1.719378111E1
1.357069646E1,-5.711971893E0,-1.249032623E1,1.565145264E0,1.382333361E1
1.358073646E1,-4.680017853E0,-9.596543884E0,3.060834961E0,1.110697674E1
1.359077546E1,-4.106560364E0,-7.752678223E0,4.245172119E0,9.746247686E0
1.360081446E1,-2.983146515E0,-6.543792114E0,4.550237732E0,8.510290346E0
1.361085346E1,-1.603166199E0,-5.568121033E0,3.904330902E0,6.986981715E0
1.362089346E1,-5.125341797E-1,-4.616699524E0,3.063229980E0,5.564169632E0
1.363093246E1,1.459465027E-1,-3.687581635E0,2.419568481E0,4.412920839E0
1.364097146E1,4.418811035E-1,-2.919229431E0,2.020348663E0,3.577564549E0
1.365101046E1,6.827302551E-1,-2.248474274E0,1.709744568E0,2.906025404E0
1.366105046E1,8.343649292E-1,-1.791474609E0,1.516047363E0,2.490772113E0
1.367108946E1,9.255253601E-1,-1.572030945E0,1.357077942E0,2.273662029E0
1.368112846E1,5.881269836E-1,-1.465153198E0,1.147513733E0,1.951756904E0
1.369116746E1,3.167413330E-1,-1.624721375E0,8.659492493E-1,1.868130809E0
1.370120746E1,1.697470093E-1,-2.036515045E0,3.354524231E-1,2.070926340E0
1.371124646E1,2.862048340E-1,-2.998714142E0,-6.198609924E-1,3.075455635E0
1.372128546E1,4.147874451E-1,-4.251608734E0,-2.157313843E0,4.785627281E0
1.373132446E1,-4.549040222E-1,-4.925357666E0,-2.980302429E0,5.774797691E0
1.374136446E1,-3.121159515E0,-5.093907166E0,-2.641107788E0,6.531843329E0
1.375140346E1,-5.230872345E0,-5.795348511E0,-2.514920197E0,8.202006672E0
1.376144246E1,-7.971523132E0,-7.882608032E0,-2.717898102E0,1.153549568E1
1.377148146E1,-1.312590454E1,-1.435529800E1,-5.327870636E0,2.016804791E1
1.378152146E1,-1.653775955E1,-2.490086838E1,-9.683213654E0,3.142157481E1
1.379156046E1,-1.312590454E1,-3.334630600E1,-1.086799988E1,3.744834997E1
1.380159946E1,-1.324011703E1,-4.079047577E1,-1.116453323E1,4.431490060E1
1.381163946E1,-1.840961700E1,-4.488580948E1,-1.228959366E1,5.004681811E1
1.382167846E1,-1.969439529E1,-4.231565414E1,-9.647288361E0,4.766082211E1
1.383171746E1,-1.805380692E1,-3.513837936E1,-6.217620392E0,3.999130470E1
1.384175646E1,-1.644659912E1,-2.836242004E1,-4.635560303E0,3.311202067E1
1.385179646E1,-1.443014236E1,-2.597578308E1,-5.059628448E0,3.014249750E1
1.386183546E1,-1.281260605E1,-2.442830109E1,-4.922962646E0,2.802035562E1
1.387187446E1,-1.176897629E1,-2.094414642E1,-3.915557556E0,2.434127489E1
1.388191346E1,-9.581275635E0,-1.622311386E1,-2.703677673E0,1.903418344E1
1.389195346E1,-7.324718170E0,-1.161255157E1,-1.284478912E0,1.378958797E1
1.390199246E1,-5.988147583E0,-7.739505615E0,3.641926575E-1,9.792369220E0
1.391203146E1,-5.101391602E0,-4.771178284E0,1.252894592E0,7.096342956E0
1.392207046E1,-3.612886963E0,-2.618953857E0,1.511257324E0,4.711238713E0
1.393211046E1,-1.963616638E0,-1.099912720E0,1.486109619E0,2.697057673E0
1.394214946E1,-7.707472229E-1,-1.886077881E-1,1.309327240E0,1.531000327E0
1.395218846E1,-1.707948303E-1,4.007167053E-1,1.058748322E0,1.144854908E0
1.396222746E1,1.429527283E-1,7.420069885E-1,7.843688965E-1,1.089148484E0
1.397226746E1,2.157014465E-1,7.560777283E-1,4.394860840E-1,9.007378438E-1
1.398230646E1,2.909948730E-1,7.015910339E-1,1.085243225E-1,7.672584464E-1
1.399234546E1,3.909869385E-1,7.237449646E-1,-1.889071655E-1,8.440162777E-1
1.400238446E1,4.486170959E-1,7.470964050E-1,-1.558259583E-1,8.852638400E-1
1.401242446E1,3.382965088E-1,6.939569092E-1,-2.245330811E-3,7.720270469E-1
1.402246346E1,3.972738647E-1,6.601272583E-1,2.225871277E-1,8.019598183E-1
1.403250246E1,5.522016907E-1,6.188131714E-1,5.721102905E-1,1.007554779E0
1.404254246E1,5.643264771E-1,6.068380737E-1,8.669970703E-1,1.199333457E0
1.405258146E1,6.125262451E-1,5.710624695E-1,1.120270386E0,1.398680264E0
1.406262046E1,7.403604126E-1,5.691165161E-1,1.280587006E0,1.584907009E0
1.407265946E1,9.512718201E-1,5.911207581E-1,1.441652069E0,1.825569093E0
1.408269946E1,1.220262451E0,6.560856628E-1,1.696272583E0,2.190166551E0
1.409273846E1,1.287472687E0,6.493496704E-1,1.828896790E0,2.328970670E0
1.410277746E1,1.634002075E0,7.438032532E-1,1.850302277E0,2.578143630E0
1.411281646E1,2.015558624E0,8.949888611E-1,1.986818390E0,2.968320896E0
1.412285646E1,2.023791504E0,8.569679260E-1,2.006277924E0,2.975781777E0
1.413289546E1,2.214345245E0,8.672964478E-1,1.892514496E0,3.039266213E0
1.414293446E1,2.611319733E0,9.107061768E-1,1.754202118E0,3.274996421E0
1.415297346E1,2.813698883E0,9.116043091E-1,1.612596588E0,3.368737386E0
1.416301346E1,2.787353668E0,7.937992859E-1,1.535057831E0,3.279612831E0
1.417305246E1,2.652035065E0,6.517446899E-1,1.408421173E0,3.072736781E0
1.418309146E1,2.491269379E0,5.581892395E-1,1.246158600E0,2.840934635E0
1.419313046E1,2.413880310E0,4.999603271E-1,9.710307312E-1,2.649467713E0
1.420317046E1,2.276316376E0,4.731660461E-1,8.029302979E-1,2.459715311E0
1.421320946E1,1.989213409E0,4.252656555E-1,6.893165588E-1,2.147784483E0
1.422324846E1,1.706601105E0,3.763174438E-1,5.275030518E-1,1.825475724E0
1.423328846E1,1.386416931E0,3.167413330E-1,4.513114929E-1,1.492031850E0
1.424332746E1,9.913883972E-1,2.344125366E-1,4.559518433E-1,1.116105853E0
1.425336592E1,6.396199036E-1,1.264869690E-1,5.004093933E-1,8.219015362E-1
1.426340492E1,2.442919922E-1,-1.353186035E-1,6.623725891E-1,7.188373590E-1
1.427344492E1,-3.143463135E-2,-5.046006775E-1,7.795788574E-1,9.291680013E-1
1.428348392E1,-1.077758789E-2,-5.930667114E-1,8.369096375E-1,1.025798236E0
1.429352292E1,-1.916015625E-2,-5.944139099E-1,7.021897888E-1,9.201986239E-1
1.430356192E1,-2.499801636E-2,-6.893165588E-1,7.840695190E-1,1.044292694E0
1.431360192E1,4.041595459E-3,-8.987310791E-1,1.295855255E0,1.577014499E0
1.432364092E1,-1.139131165E-1,-1.456471252E0,2.567161560E0,2.953743926E0
1.433367992E1,-2.598596191E0,-8.089777222E0,-2.634521484E-2,8.496934255E0
1.434371892E1,-5.180172775E1,-1.304712337E2,-2.106868744E0,1.403944469E2
1.435375892E1,-2.501403305E1,-1.377056895E2,6.886579285E0,1.401284545E2
1.436379792E1,-9.998458099E0,-5.226187088E1,-1.485959930E0,5.323044607E1
1.437383692E1,-6.006708984E0,-1.802925797E1,-2.976260834E0,1.923519753E1
1.438387592E1,-3.341501312E0,-6.869963837E0,-2.534230042E0,8.048872967E0
1.439391592E1,-6.825955353E0,-5.908064117E0,-3.093766479E0,9.543074930E0
1.440395492E1,-8.287516022E0,-5.647755432E0,-4.026476898E0,1.080706155E1
1.441399392E1,-8.111781464E0,-6.246959381E0,-5.236560516E0,1.149987244E1
1.442403292E1,-6.688990173E0,-7.132368164E0,-5.811215515E0,1.137468641E1
1.443407292E1,-5.874533844E0,-7.343878326E0,-5.369184723E0,1.082916624E1
1.444411192E1,-5.067561951E0,-6.003415833E0,-5.257367249E0,9.453099818E0
1.445415092E1,-4.284390564E0,-4.080664215E0,-5.138813782E0,7.836786971E0
1.446419092E1,-3.670517120E0,-2.332599335E0,-4.696483612E0,6.400833845E0
1.447422992E1,-2.999462585E0,-1.564546509E0,-4.019591217E0,5.253731544E0
1.448426892E1,-2.224374390E0,-1.576970673E0,-3.388204193E0,4.349092501E0
1.449430792E1,-1.473386078E0,-1.760039978E0,-2.968027954E0,3.752039072E0
1.450434792E1,-8.253836060E-1,-1.680405579E0,-2.729274445E0,3.309676721E0
1.451438692E1,-6.007008362E-1,-1.584155731E0,-2.564317474E0,3.073453267E0
1.452442592E1,-7.065307617E-1,-1.549427948E0,-2.389331360E0,2.934078566E0
1.453446492E1,-1.021475830E0,-1.741029510E0,-2.132166138E0,2.936107809E0
1.454450492E1,-1.461261292E0,-2.188748474E0,-1.867666168E0,3.227085583E0
1.455454392E1,-2.147883453E0,-3.179238739E0,-1.660496979E0,4.180695218E0
1.456458292E1,-3.397185516E0,-4.825664978E0,-1.610351257E0,6.117282328E0
1.457462192E1,-4.832550659E0,-6.867718506E0,-1.501527557E0,8.530749578E0
1.458466192E1,-5.842201080E0,-8.955576782E0,-1.290915527E0,1.077033574E1
1.459470092E1,-6.494993591E0,-1.079764618E1,-1.145268402E0,1.265249953E1
1.460473992E1,-6.888375549E0,-1.237656281E1,-1.065484314E0,1.420437543E1
1.461477892E1,-6.965764618E0,-1.354383545E1,-9.023236084E-1,1.525685234E1
1.462481892E1,-6.440506897E0,-1.380653915E1,-5.572911072E-1,1.524503939E1
1.463485792E1,-5.170398102E0,-1.274883865E1,-1.517843628E-1,1.375823179E1
1.464489692E1,-3.904181213E0,-1.086650299E1,1.805245972E-1,1.154799148E1
1.465493592E1,-3.170257416E0,-9.111851807E0,5.427713013E-1,9.662865833E0
1.466497592E1,-2.661914520E0,-7.635022888E0,1.049916687E0,8.153630386E0
1.467501492E1,-2.056273956E0,-6.434369659E0,1.763033752E0,6.981236532E0
1.468505392E1,-1.011446686E0,-5.452261963E0,2.556084595E0,6.106042365E0
1.469509292E1,7.200027466E-2,-4.843927002E0,3.423979797E0,5.932322521E0
1.470513292E1,1.527423706E0,-4.519551544E0,3.996688843E0,6.223575423E0
1.471517192E1,1.850002899E0,-3.896247711E0,3.978576508E0,5.867906610E0
1.472521092E1,1.194815369E0,-2.906655579E0,3.614683228E0,4.789798039E0
1.473525092E1,7.279362488E-1,-1.954186249E0,3.111280060E0,3.745503796E0
1.474528992E1,5.526507568E-1,-1.169218597E0,2.575993195E0,2.882401070E0
1.475532892E1,5.287005615E-1,-8.011340332E-1,2.009720764E0,2.227177041E0
1.476536792E1,1.856140137E-1,-9.243278503E-1,1.247505798E0,1.563683233E0
1.477540792E1,-3.516188049E-1,-1.542242889E0,4.691244507E-1,1.649917169E0
1.478544692E1,-6.801855469E-1,-2.720742188E0,-4.751119995E-1,2.844436999E0
1.479548592E1,-4.376898193E-1,-4.602479095E0,-1.883233795E0,4.992089315E0
1.480552492E1,-9.430389404E-2,-7.601043549E0,-4.208348694E0,8.688783285E0
1.481556492E1,-2.076931000E0,-1.163021484E1,-6.582561493E0,1.352426174E1
1.482560392E1,-5.736670532E0,-1.631951340E1,-8.739426270E0,1.938075019E1
1.483564292E1,-8.787027283E0,-2.156295959E1,-1.101289856E1,2.575765924E1
1.484568192E1,-1.101050354E1,-2.652768539E1,-1.122366028E1,3.083698803E1
1.485572192E1,-1.713890945E1,-2.951217911E1,-1.060918808E1,3.573885567E1
1.486576092E1,-1.861169678E1,-2.899590271E1,-7.961643677E0,3.536305135E1
1.487579992E1,-1.152872589E1,-3.115336624E1,-6.143973541E0,3.378153578E1
1.488583892E1,-8.736133118E0,-3.878479660E1,-5.907016296E0,4.019295101E1
1.489587892E1,-1.342827576E1,-4.127861069E1,-4.864134979E0,4.367953868E1
1.490591792E1,-1.675630508E1,-3.643273773E1,-2.676434326E0,4.019056406E1
1.491595692E1,-1.338202194E1,-3.156291458E1,-1.182690582E0,3.430298595E1
1.492599592E1,-1.023526566E1,-2.837379639E1,-6.343807983E-1,3.017010811E1
1.493603592E1,-1.156659714E1,-2.629417099E1,-8.454418945E-1,2.873820400E1
1.494607492E1,-1.072893906E1,-2.334455475E1,-1.653611298E0,2.574515100E1
1.495611392E1,-7.710915070E0,-1.829809891E1,-1.791474609E0,1.993710150E1
1.496615292E1,-5.302722931E0,-1.322410034E1,-1.285077667E0,1.430549282E1
1.497619292E1,-3.372187500E0,-9.150920563E0,-8.605604553E-1,9.790380992E0
1.498623192E1,-2.062860260E0,-5.905968475E0,-4.846920776E-1,6.274614131E0
1.499627092E1,-1.097218323E0,-3.498973846E0,-1.960922241E-1,3.672214344E0
1.500631092E1,-3.393443298E-1,-1.759890289E0,2.634521484E-2,1.792501736E0
1.501634992E1,1.055305481E-1,-6.357279968E-1,2.689906311E-1,6.983142145E-1
1.502638892E1,2.402503967E-1,8.337661743E-2,4.950205994E-1,5.565225128E-1
1.503642792E1,3.035687256E-1,3.658392334E-1,6.075865173E-1,7.714620483E-1
1.504646792E1,3.849993896E-1,4.013154602E-1,7.614665222E-1,9.429262395E-1
1.505650692E1,4.736151123E-1,4.055067444E-1,9.377998352E-1,1.126150756E0
1.506654592E1,6.724017334E-1,4.879852295E-1,1.303639069E0,1.545874670E0
1.507658492E1,9.319619751E-1,5.978567505E-1,1.723366241E0,2.048408411E0
1.508662492E1,8.607101440E-1,5.864804077E-1,1.936073914E0,2.198445683E0
1.509666392E1,8.238867188E-1,6.300398254E-1,2.120340729E0,2.360420368E0
1.510670292E1,1.005309448E0,7.033872986E-1,2.341880035E0,2.643823534E0
1.511674192E1,1.066681824E0,7.719447327E-1,2.273172913E0,2.626979991E0
1.512678192E1,1.018482056E0,7.896080017E-1,2.027683411E0,2.402558326E0
1.513682092E1,9.548643494E-1,7.948471069E-1,1.875150604E0,2.249386058E0
1.514685992E1,1.091679840E0,8.878038025E-1,1.812131653E0,2.294293266E0
1.515689892E1,1.264121246E0,9.445358276E-1,1.782343597E0,2.380524975E0
1.516693892E1,1.347497864E0,9.725276184E-1,1.795516205E0,2.446515666E0
1.517697792E1,1.498683472E0,9.762698364E-1,1.828447723E0,2.557806877E0
1.518701692E1,1.656305695E0,9.967771912E-1,2.030826874E0,2.803778007E0
1.519705592E1,1.848655701E0,9.783654785E-1,2.146386566E0,2.996948815E0
1.520709592E1,2.159858551E0,1.024619293E0,2.170037384E0,3.228605876E0
1.521713492E1,2.396965485E0,1.060095520E0,2.075284424E0,3.343060198E0
1.522717392E1,2.351909180E0,9.933343506E-1,1.757644958E0,3.099597671E0
1.523721292E1,2.167342987E0,9.205856323E-1,1.267713776E0,2.674313323E0
1.524725292E1,1.967209167E0,8.502319336E-1,7.182064819E-1,2.260227157E0
1.525729171E1,1.759890289E0,8.029302979E-1,2.513273621E-1,1.950660487E0
1.526733071E1,1.669478302E0,7.695497131E-1,-6.586303711E-2,1.839484303E0
1.527736971E1,1.557660828E0,6.948550415E-1,-2.297721863E-1,1.721024706E0
1.528740971E1,1.558109894E0,7.017407227E-1,-2.927911377E-1,1.733745406E0
1.529744871E1,1.551523590E0,7.021897888E-1,-3.044668579E-1,1.730027751E0
1.530748771E1,1.520837402E0,6.945556641E-1,-2.177970886E-1,1.686057397E0
1.531752671E1,1.454525299E0,6.622229004E-1,-1.389111328E-1,1.604206757E0
1.532756671E1,1.289268951E0,6.147715759E-1,-4.715194702E-2,1.429119248E0
1.533760571E1,1.046324158E0,4.867877197E-1,-4.805007935E-2,1.155017462E0
1.534764471E1,6.005511475E-1,-8.083190918E-3,7.080276489E-2,6.047644585E-1
1.535768471E1,3.620970154E-1,-5.141807556E-1,4.085005188E-1,7.499125095E-1
1.536772371E1,3.245251465E-1,-6.610253906E-1,5.813909912E-1,9.382359098E-1
1.537776271E1,2.981799316E-1,-7.734416199E-1,7.635621643E-1,1.127009490E0
1.538780171E1,3.638932800E-1,-1.030606842E0,8.912466431E-1,1.410279887E0
1.539784171E1,4.381388855E-1,-1.503024445E0,1.511556702E0,2.176201238E0
1.540788071E1,9.231303406E-1,-2.576891327E0,2.644251251E0,3.805864319E0
1.541791971E1,2.014810181E0,-4.360282745E0,3.343896332E0,5.852620640E0
1.542795871E1,-5.114713898E0,-4.788706833E1,-9.347461853E0,4.905819661E1
1.543799871E1,-2.318423813E1,-1.654557330E2,-9.181307373E0,1.673242508E2
1.544803771E1,-1.005444168E1,-1.020582188E2,-5.498066711E-1,1.025537621E2
1.545807671E1,-1.020757324E1,-3.630819672E1,-2.395019531E-3,3.771577529E1
1.546811571E1,-5.345533905E0,-1.186777084E1,1.337169342E0,1.308459932E1
1.547815571E1,-3.912414093E0,-8.148604889E0,-4.044589233E-1,9.048222626E0
1.548819471E1,-4.103416901E0,-7.479047241E0,-2.945724335E0,9.025046801E0
1.549823371E1,-5.479654999E0,-7.769143982E0,-4.563859406E0,1.054585368E1
1.550827271E1,-5.514831848E0,-7.565717010E0,-5.258564758E0,1.073806070E1
1.551831271E1,-4.559668121E0,-6.500232697E0,-5.159919891E0,9.469338508E0
1.552835171E1,-3.646716614E0,-5.018164673E0,-4.772824860E0,7.826900784E0
1.553839071E1,-3.063229980E0,-3.621419220E0,-4.378694458E0,6.455309461E0
1.554842971E1,-2.797233124E0,-2.301314392E0,-4.188589783E0,5.537584803E0
1.555846971E1,-2.589764557E0,-1.164578247E0,-4.170627136E0,5.045518176E0
1.556850871E1,-2.294279022E0,-4.046086121E-1,-4.343367920E0,4.928718824E0
1.557854771E1,-2.074685669E0,-1.422042847E-2,-4.689298553E0,5.127771813E0
1.558858671E1,-1.517993317E0,2.727328491E-1,-4.827012177E0,5.067418817E0
1.559862671E1,-8.999285889E-1,3.912863159E-1,-5.052293701E0,5.146712357E0
1.560866571E1,-5.483097839E-1,2.035766602E-1,-5.125192108E0,5.158457252E0
1.561870471E1,-2.992277527E-1,-2.540217590E-1,-4.888234863E0,4.903968228E0
1.562874371E1,-4.987628174E-1,-1.126557312E0,-4.509672089E0,4.674937227E0
1.563878371E1,-1.459914093E0,-2.776276703E0,-4.192631378E0,5.236145468E0
1.564882271E1,-2.397564240E0,-4.464017029E0,-4.053570557E0,6.489005823E0
1.565886171E1,-3.457061005E0,-5.932912445E0,-3.938310242E0,7.915870668E0
1.566890071E1,-4.748275909E0,-7.993677063E0,-3.669469299E0,9.995499089E0
1.567894071E1,-6.200555878E0,-1.046518753E1,-3.302282867E0,1.260444824E1
1.568897971E1,-7.310198364E0,-1.254241791E1,-3.010539551E0,1.482614567E1
1.569901871E1,-7.769593048E0,-1.386596558E1,-2.681224365E0,1.611894977E1
1.570905771E1,-7.847431183E0,-1.457848389E1,-2.306104431E0,1.671623421E1
1.571909771E1,-7.732021179E0,-1.511362106E1,-1.930236053E0,1.708600317E1
1.572913671E1,-7.333998871E0,-1.501826935E1,-1.394949188E0,1.677145900E1
1.573917571E1,-6.207890625E0,-1.416549271E1,-8.099656677E-1,1.548725715E1
1.574921471E1,-5.033881989E0,-1.307351349E1,-1.438508606E-1,1.400990421E1
1.575925471E1,-4.097279663E0,-1.203572159E1,7.578739929E-1,1.273658776E1
1.576929371E1,-3.716022491E0,-1.099553467E1,1.882934418E0,1.175823319E1
1.577933271E1,-3.646417236E0,-1.004755600E1,2.996019745E0,1.110071505E1
1.578937171E1,-3.331472168E0,-9.226812744E0,3.759432220E0,1.050552763E1
1.579941171E1,-2.683320007E0,-8.407716064E0,3.504063263E0,9.495701924E0
1.580945071E1,-2.106719055E0,-7.368277588E0,2.210902405E0,7.976081070E0
1.581948971E1,-1.971550140E0,-6.089486847E0,1.014440460E0,6.480582494E0
1.582952871E1,-1.670825500E0,-4.847669220E0,4.189787292E-1,5.144618343E0
1.583956871E1,-1.326990509E0,-3.844455414E0,1.811233521E-1,4.071062135E0
1.584960771E1,-9.508227539E-1,-3.100801849E0,2.597099304E-1,3.253687949E0
1.585964671E1,-6.732998657E-1,-2.410736847E0,5.575904846E-1,2.564350211E0
1.586968571E1,-3.737727356E-1,-1.858235779E0,8.681945801E-1,2.084828074E0
1.587972571E1,-2.589614868E-1,-1.405277710E0,1.033301239E0,1.763399542E0
1.588976471E1,-2.125579834E-1,-1.065484314E0,1.150956573E0,1.582763012E0
1.589980371E1,-2.338137817E-1,-7.912545776E-1,1.235530701E0,1.485694721E0
1.590984271E1,8.083190918E-3,-6.486012268E-1,1.275497589E0,1.430958766E0
1.591988271E1,-2.555186462E-1,-6.584806824E-1,1.360969849E0,1.533338031E0
1.592992171E1,-8.656498718E-1,-9.750723267E-1,1.243015137E0,1.801444524E0
1.593996071E1,-2.850073242E-1,-2.276166687E0,6.071374512E-1,2.372926431E0
1.594999971E1,8.289761353E-1,-4.604724426E0,-4.638853455E-1,4.701688855E0
1.596003971E1,-1.285826111E0,-7.756869507E0,-1.902094574E0,8.089520202E0
1.597007871E1,-6.038143616E0,-1.076172089E1,-2.522853699E0,1.259518184E1
1.598011771E1,-1.041219772E1,-1.558064987E1,-3.981570282E0,1.915785515E1
1.599015771E1,-1.392135040E1,-2.550126984E1,-8.444090424E0,3.025593204E1
1.600019671E1,-1.592373642E1,-3.990162415E1,-1.329804657E1,4.497269209E1
1.601023571E1,-2.074176727E1,-4.939623001E1,-1.412567551E1,5.540526290E1
1.602027471E1,-3.007785278E1,-4.855408127E1,-1.251966522E1,5.847151489E1
1.603031371E1,-2.798071381E1,-3.939133530E1,-9.406888275E0,4.922486352E1
1.604035371E1,-1.932690948E1,-3.071926895E1,-7.802823944E0,3.712259388E1
1.605039271E1,-1.467712875E1,-2.535173080E1,-7.608527985E0,3.026579028E1
1.606043171E1,-1.462952774E1,-2.413371368E1,-7.512727203E0,2.920445665E1
1.607047071E1,-1.413495621E1,-2.213716553E1,-6.195466461E0,2.698582756E1
1.608051071E1,-1.187809937E1,-1.757540176E1,-4.571942596E0,2.169992283E1
1.609054971E1,-9.596992950E0,-1.348994751E1,-3.761228485E0,1.697727296E1
1.610058871E1,-6.646927643E0,-1.004800507E1,-3.131488037E0,1.244790224E1
1.611062771E1,-3.770808563E0,-6.809639282E0,-2.414029999E0,8.149707063E0
1.612066771E1,-2.054477692E0,-4.230951691E0,-1.870659943E0,5.061738774E0
1.613070671E1,-1.099313965E0,-2.146835632E0,-1.626667328E0,2.909199378E0
1.614074571E1,-3.650907898E-1,-6.146218872E-1,-1.383872223E0,1.557611530E0
1.615078471E1,-1.751358032E-2,3.914360046E-1,-1.262774048E0,1.322167602E0
1.616082471E1,1.460961914E-1,8.047265625E-1,-1.181044006E0,1.436591063E0
1.617086371E1,2.059716797E-1,7.770341492E-1,-1.053509216E0,1.325174732E0
1.618090271E1,2.598596191E-1,7.283853149E-1,-7.336244202E-1,1.065962935E0
1.619094171E1,2.990780640E-1,6.116281128E-1,-4.408332825E-1,8.110922387E-1
1.620098171E1,2.791694641E-1,5.322930908E-1,2.210902405E-1,6.404314317E-1
1.621102071E1,3.228785706E-1,4.692741394E-1,1.111738129E0,1.249171908E0
1.622105971E1,5.523513794E-1,4.501139832E-1,2.328108673E0,2.434704220E0
1.623109871E1,9.482780457E-1,5.701643372E-1,3.347638550E0,3.525762681E0
1.624113871E1,1.582958221E0,7.286846924E-1,4.167633362E0,4.517289669E0
1.625117771E1,2.717149658E0,1.111887817E0,5.281167755E0,6.042344714E0
1.626121746E1,3.563040619E0,1.317709808E0,6.002218323E0,7.103396539E0
1.627125646E1,4.362677765E0,1.409169617E0,5.936205597E0,7.500483530E0
1.628129646E1,4.596790924E0,1.378184052E0,5.142106934E0,7.033572477E0
1.629133546E1,4.872068481E0,1.295855255E0,3.772155762E0,6.296463390E0
1.630137446E1,5.269192657E0,1.207838287E0,2.397115173E0,5.913495222E0
1.631141446E1,5.256319427E0,1.052012329E0,1.482966156E0,5.561907270E0
1.632145346E1,4.751119995E0,9.063652039E-1,8.162525940E-1,4.905191881E0
1.633149246E1,3.876937866E0,7.214996338E-1,3.817062378E-1,3.961932432E0
1.634153146E1,2.966680756E0,5.872288513E-1,8.277786255E-2,3.025373465E0
1.635157046E1,2.071542206E0,3.954776001E-1,-1.031355286E-1,2.111474977E0
1.636161046E1,1.377585297E0,2.179467773E-1,-2.525248718E-1,1.417395802E0
1.637164946E1,9.741741943E-1,1.002914429E-1,-4.769082642E-1,1.089272797E0
1.638168846E1,7.905061340E-1,4.460723877E-2,-5.867797852E-1,9.854949365E-1
1.639172846E1,6.846762085E-1,3.353027344E-2,-6.113287354E-1,9.184925761E-1
1.640176746E1,5.981561279E-1,7.439529419E-2,-6.771917725E-1,9.065947881E-1
1.641180646E1,5.363346863E-1,8.337661743E-2,-7.845185852E-1,9.539790179E-1
1.642184546E1,5.207670593E-1,1.140628052E-1,-8.475375366E-1,1.001263467E0
1.643188446E1,4.909790039E-1,1.335223389E-1,-8.693920898E-1,1.007338674E0
1.644192446E1,4.471202087E-1,1.175056458E-1,-8.104147339E-1,9.330038043E-1
1.645196346E1,3.959266663E-1,1.107696533E-1,-7.758366394E-1,8.780377738E-1
1.646200246E1,3.583547974E-1,1.112187195E-1,-7.387138367E-1,8.285444447E-1
1.647204246E1,2.457888794E-1,4.640350342E-3,-5.827381897E-1,6.324693699E-1
