"Time (s)","Acceleration x (m/s^2)","Acceleration y (m/s^2)","Acceleration z (m/s^2)","Absolute acceleration (m/s^2)"
7.005000007E-4,-1.615740051E0,-1.757345581E-1,8.136480103E0,8.297216823E0
1.073950000E-2,-2.077829132E0,-6.945556641E-2,7.907156982E0,8.175899310E0
2.077850000E-2,-2.402503967E0,-6.032455444E-2,7.727680206E0,8.092756374E0
3.081750000E-2,-2.460882568E0,-5.104385376E-2,7.874973907E0,8.250682550E0
4.085650000E-2,-2.532433777E0,-9.849517822E-2,8.205486603E0,8.587952755E0
5.089550000E-2,-2.621199188E0,-1.299298096E-1,8.253836060E0,8.661026304E0
6.093450000E-2,-2.426753540E0,1.299298096E-1,7.945926361E0,8.309257502E0
7.097450001E-2,-3.671714630E0,-4.761598206E-1,9.081015930E0,9.806786774E0
8.101350000E-2,-6.238726501E0,-1.335971832E0,1.050425629E1,1.229007442E1
9.105250000E-2,-5.090614014E0,-9.475296021E-1,1.113055389E1,1.227604958E1
1.010915000E-1,-2.636168060E0,-1.330732727E-1,1.039737854E1,1.072718840E1
1.111305000E-1,-1.869163055E0,-2.725831604E-1,1.006641678E1,1.024211008E1
1.211695000E-1,-1.988464966E0,-8.175997925E-1,9.993817749E0,1.022246817E1
1.312095000E-1,-2.228865051E0,-9.388476562E-1,1.017883301E1,1.046221371E1
1.412485000E-1,-2.536325684E0,-6.183641052E-1,1.039603134E1,1.071880543E1
1.512875000E-1,-2.831960907E0,-3.637435913E-1,1.037103333E1,1.075688822E1
1.613265000E-1,-2.915636902E0,-3.755690002E-1,1.014455429E1,1.056191140E1
1.713655000E-1,-2.864293671E0,-4.343966675E-1,9.781559143E0,1.020155762E1
1.814045000E-1,-2.688259735E0,-4.070036316E-1,9.480684814E0,9.862848316E0
1.914435000E-1,-2.587668915E0,-4.137396240E-1,9.133856049E0,9.502343774E0
2.014835000E-1,-2.573897552E0,-5.092410278E-1,8.716673584E0,9.103003538E0
2.115225000E-1,-2.687511292E0,-7.473957825E-1,8.632099457E0,9.071629315E0
2.215615000E-1,-2.954106903E0,-8.623567200E-1,8.925040283E0,9.440696519E0
2.316005000E-1,-3.264860687E0,-7.777825928E-1,9.137298889E0,9.734191906E0
2.416395000E-1,-3.564836884E0,-8.288264465E-1,9.016350403E0,9.730857612E0
2.516785000E-1,-3.433110809E0,-8.502319336E-1,8.766370239E0,9.452956751E0
2.617175000E-1,-3.017425232E0,-5.297483826E-1,8.446335754E0,8.984769115E0
2.717575000E-1,-3.110980682E0,-2.517764282E-1,8.334069214E0,8.899342776E0
2.817965000E-1,-3.597618713E0,-1.966909790E-1,7.994874573E0,8.769239829E0
2.918355000E-1,-3.690725098E0,-1.317260742E-1,7.303162994E0,8.183825098E0
3.018745000E-1,-3.768114166E0,-2.285746765E-1,6.530320129E0,7.542944501E0
3.119135000E-1,-3.517684937E0,-3.243754578E-1,6.255641327E0,7.184175329E0
3.219525000E-1,-3.027753754E0,-4.382885742E-1,6.199508057E0,6.913269112E0
3.319915000E-1,-3.976331177E0,-7.466473389E-1,5.467081146E0,6.801299004E0
3.420315000E-1,-4.187242584E0,-1.198557587E0,4.011957092E0,5.921599485E0
3.520705000E-1,-2.878065033E0,-1.301244049E0,2.607727203E0,4.095941354E0
3.621095000E-1,-2.880160675E0,-9.011260986E-1,2.518363037E0,3.930585980E0
3.721485000E-1,-3.663631439E0,-5.402265930E-1,3.015179901E0,4.775494731E0
3.821875000E-1,-3.483705597E0,-6.652166748E-1,2.851719818E0,4.550936588E0
3.922265000E-1,-3.481160889E0,-1.032552795E0,2.534379730E0,4.428061317E0
4.022655000E-1,-4.049379272E0,-1.865720215E0,2.502496033E0,5.112814372E0
4.123055000E-1,-4.117337952E0,-2.565065918E0,2.769391022E0,5.585835802E0
4.223445000E-1,-3.450325012E0,-2.950065308E0,3.205583954E0,5.557283194E0
4.323835000E-1,-1.910028076E0,-3.497776337E0,3.913012848E0,5.585187204E0
4.424225000E-1,-1.102607117E0,-4.257446594E0,4.518054657E0,6.305109978E0
4.524615000E-1,-2.651436310E0,-4.617148590E0,4.853956146E0,7.204794645E0
4.625005000E-1,-4.292324066E0,-4.829556885E0,4.802163849E0,8.050431245E0
4.725395000E-1,-4.525988159E0,-5.387446747E0,4.661007385E0,8.440032056E0
4.825795000E-1,-4.238885193E0,-5.622607727E0,6.036796417E0,9.274954249E0
4.926185000E-1,-4.804259491E0,-5.706134033E0,7.566914520E0,1.062539741E1
5.026575000E-1,-5.885910187E0,-6.471043396E0,9.231453094E0,1.271762822E1
5.126965000E-1,-6.511309662E0,-6.804100800E0,1.056458084E1,1.415285517E1
5.227355000E-1,-7.203919373E0,-6.564898224E0,1.126108246E1,1.489316357E1
5.327745000E-1,-8.465346222E0,-6.176755371E0,1.142409348E1,1.550239676E1
5.428135000E-1,-9.603429565E0,-5.854774933E0,1.048120422E1,1.537400048E1
5.528535000E-1,-1.114746872E1,-5.537584534E0,8.649613037E0,1.515739777E1
5.628925000E-1,-1.326137283E1,-4.650379486E0,6.665489044E0,1.555373855E1
5.729315000E-1,-1.523277328E1,-3.795357513E0,5.324128418E0,1.657674467E1
5.829705000E-1,-1.828717163E1,-2.921025696E0,4.692142639E0,1.910416813E1
5.930095000E-1,-2.043700104E1,-2.139351196E0,4.410129089E0,2.101659044E1
6.030485000E-1,-2.098067047E1,-1.821861420E0,3.713028717E0,2.138444048E1
6.130885000E-1,-2.026830185E1,-1.329684906E0,2.957250366E0,2.052601889E1
6.231275000E-1,-1.828552505E1,-8.452922058E-1,2.045496368E0,1.841898479E1
6.331665000E-1,-1.759501099E1,-7.985893250E-1,1.607956238E0,1.768636989E1
6.432055000E-1,-1.794827637E1,-1.187779999E0,2.042053528E0,1.810307787E1
6.532445000E-1,-1.768123169E1,-1.946252747E0,2.154170380E0,1.791798828E1
6.632835000E-1,-1.748723511E1,-2.733016663E0,1.230890350E0,1.774226206E1
6.733225000E-1,-1.721061035E1,-3.006497955E0,-4.631369019E-1,1.747737493E1
6.833625000E-1,-1.718022354E1,-2.820584564E0,-1.879641266E0,1.751139142E1
6.934015000E-1,-1.728470627E1,-2.474653931E0,-3.372786255E0,1.778371924E1
7.034405000E-1,-1.666499496E1,-1.845212860E0,-5.812862091E0,1.774587933E1
7.134795000E-1,-1.592164078E1,-1.689835968E0,-5.103487244E0,1.680475447E1
7.235185000E-1,-1.524444901E1,-1.715881805E0,-4.268822937E0,1.592357765E1
7.335575000E-1,-1.406849442E1,-1.456620941E0,-2.807411957E0,1.441963389E1
7.435965000E-1,-1.376103378E1,-1.853296051E0,-7.912545776E-1,1.390779784E1
7.536365000E-1,-1.375579468E1,-1.813778229E0,-5.059478760E-2,1.387495004E1
7.636755000E-1,-1.334504883E1,-1.344504089E0,-6.179150391E-1,1.342683278E1
7.737145000E-1,-1.276575348E1,-4.837939453E-1,-2.952610016E0,1.311169037E1
7.837535000E-1,-1.066292633E1,4.977149963E-1,-7.648045807E0,1.313157732E1
7.937925000E-1,-8.755293274E0,8.102650452E-1,-1.116453323E1,1.421121009E1
8.038315000E-1,-7.750283203E0,4.767585754E-1,-9.677226105E0,1.240737255E1
8.138705000E-1,-6.544241180E0,-4.083508301E-1,-5.742508392E0,8.716091192E0
8.239105000E-1,-3.080743561E0,-2.151625671E0,-2.749931488E0,4.656457571E0
8.339495000E-1,-1.855391693E0,-3.047063599E0,-1.243913269E-1,3.569670589E0
8.439885000E-1,-4.026327209E0,-2.966381378E0,7.875123596E-1,5.062697403E0
8.540275000E-1,-4.738695831E0,-2.967728577E0,3.489244080E-1,5.602178088E0
8.640665000E-1,-4.416565704E0,-2.490520935E0,-7.658074951E-1,5.127885360E0
8.741055000E-1,-4.914280701E0,-2.089355164E0,-7.658074951E-1,5.394628896E0
8.841445000E-1,-7.640711060E0,-2.326013031E0,-9.666897583E-1,8.045202993E0
8.941845000E-1,-8.906329193E0,-2.352957001E0,-2.146386566E0,9.458651153E0
9.042235000E-1,-8.767418060E0,-2.407144318E0,-1.033151550E0,9.150375147E0
9.142625000E-1,-1.001956421E1,-2.332898712E0,-8.741821289E-1,1.032464419E1
9.243009167E-1,-1.144549896E1,-1.690285034E0,2.902464294E-1,1.157327754E1
9.343399167E-1,-1.012778915E1,-1.228046265E0,2.471360779E0,1.049703934E1
9.443789167E-1,-1.044078827E1,-4.400848389E-1,7.396119690E-1,1.047619970E1
9.544189167E-1,-1.046399002E1,6.735992432E-1,-1.676363983E0,1.061880498E1
9.644579167E-1,-7.792794800E0,6.999444580E-1,2.067500610E0,8.092720915E0
9.744969167E-1,-4.382286987E0,-1.445543976E0,3.121608582E0,5.571218607E0
9.845359167E-1,-5.158273315E-1,-2.725232849E0,3.168161774E0,4.210726890E0
9.945749167E-1,-1.122665405E-1,-3.346590729E0,2.306553497E0,4.066013074E0
1.004613917E0,-1.758543091E0,-2.680176544E0,-6.622229004E-1,3.273279591E0
1.014652917E0,-2.140249329E0,-6.063890076E-1,-3.343896332E0,4.016219304E0
1.024691917E0,-3.697012024E0,-3.086581421E-1,-4.306095428E0,5.683803796E0
1.034731917E0,-5.007536774E0,-2.860401764E0,-3.014880524E0,6.507443996E0
1.044770917E0,-5.365741882E0,-2.589315491E0,-2.339185638E0,6.400588263E0
1.054809917E0,-7.794441376E0,-2.540217590E0,-1.823058929E0,8.398188235E0
1.064848917E0,-1.475706253E1,-3.422033844E0,-9.833052063E-1,1.518051710E1
1.074887917E0,-1.753797958E1,-2.818189545E0,6.029461670E-1,1.777319511E1
1.084926917E0,-1.707963272E1,-3.227288818E0,-1.503174133E0,1.744674123E1
1.094965917E0,-1.548395096E1,-3.614683228E0,6.626719666E-1,1.591407573E1
1.105005917E0,-1.484492981E1,-3.076701965E0,2.888692932E0,1.543316503E1
1.115044917E0,-1.322544754E1,-3.405568085E0,2.188149719E0,1.383106488E1
1.125083917E0,-1.337094498E1,-4.134552155E0,2.529140625E0,1.422227982E1
1.135122917E0,-1.452459595E1,-5.054838409E0,1.869911499E0,1.549231577E1
1.145161917E0,-1.361194382E1,-5.469027100E0,2.380050659E-1,1.467146613E1
1.155200917E0,-1.059107574E1,-5.087620239E0,-1.395547943E0,1.183225757E1
1.165240917E0,-9.516460419E0,-4.388573914E0,-2.933599548E0,1.088249081E1
1.175279917E0,-8.638087006E0,-2.100132751E0,-4.744234314E0,1.007645096E1
1.185318917E0,-6.791077881E0,-5.533992004E-1,-6.785240021E0,9.615844820E0
1.195357917E0,-6.680008850E0,3.182382202E-1,-7.091952209E0,9.747798723E0
1.205396917E0,-7.775580597E0,2.021246796E0,-3.731889496E0,8.858447462E0
1.215435917E0,-9.321715393E0,2.912493439E0,-1.682201843E0,9.909934356E0
1.225474917E0,-1.075782898E1,2.737507324E0,-1.504820709E0,1.120220139E1
1.235514917E0,-1.239542358E1,2.014211426E0,-1.021176453E0,1.259945931E1
1.245553917E0,-1.224184296E1,3.008743286E-1,-2.441123657E0,1.248648586E1
1.255592917E0,-1.065184937E1,-3.591481476E0,-5.665119324E0,1.258785967E1
1.265631917E0,-9.587562561E0,-5.890251160E0,-5.000800781E0,1.231358693E1
1.275670917E0,-7.856412506E0,-5.453160095E0,-1.530417480E0,9.685161339E0
1.285709917E0,-4.245770874E0,-5.365592194E0,2.603086853E-1,6.847182670E0
1.295748917E0,-9.973759460E-1,-6.408922577E0,1.450184326E0,6.646208088E0
1.305788917E0,5.516029358E-1,-1.071890991E1,3.752696228E0,1.137022535E1
1.315827917E0,5.023553467E-1,-1.392913422E1,5.438789978E0,1.496173711E1
1.325866917E0,3.924838257E-1,-1.235141510E1,4.590503998E0,1.318272451E1
1.335905917E0,1.201102295E0,-1.113714020E1,3.186573486E0,1.164614911E1
1.345944917E0,2.966980133E0,-9.454189911E0,2.440973969E0,1.020504933E1
1.355983917E0,4.417463837E0,-7.595654755E0,1.790875854E0,8.967451936E0
1.366022917E0,5.253924408E0,-6.674620056E0,2.028581543E0,8.733236379E0
1.376062917E0,5.314847717E0,-5.757776642E0,1.597478027E0,7.996970312E0
1.386101917E0,2.994672546E0,-3.239114227E0,4.981640625E-1,4.439379694E0
1.396140917E0,-1.718426514E-1,-5.501060486E-1,-4.218228149E-1,7.141995861E-1
1.406179917E0,-1.759441223E0,3.932322693E-1,-5.134323120E-1,1.874534015E0
1.416218917E0,-2.229463806E0,-3.552113342E-1,-6.156697083E-1,2.340028450E0
1.426257917E0,-1.586251373E0,-2.988086243E0,-6.245013428E-1,3.440182370E0
1.436296917E0,-5.900729370E-1,-8.170758820E0,-3.257226562E-1,8.198510902E0
1.446336917E0,-3.186872864E-1,-1.264809814E1,-8.822653198E-1,1.268283645E1
1.456375917E0,-1.386117554E0,-1.301857773E1,-3.324736176E0,1.350772218E1
1.466414917E0,-2.264191589E0,-1.375310028E1,-1.700329147E1,2.198604675E1
1.476453917E0,-2.189945984E0,-1.172391998E1,-1.566702026E1,1.969014188E1
1.486492917E0,-1.294807434E0,-1.020038818E1,-7.483986969E0,1.271748821E1
1.496531917E0,-3.463796997E-1,-1.041234741E1,-3.193608856E0,1.089660934E1
1.506570917E0,2.038610687E0,-1.090437424E1,1.381626892E-1,1.109416062E1
1.516610917E0,4.537364502E0,-1.378154114E1,3.632496185E0,1.495705791E1
1.526649917E0,7.606282654E0,-1.601100494E1,4.804558868E0,1.836550029E1
1.536688917E0,9.340426483E0,-1.629406631E1,4.974904633E0,1.942909777E1
1.546727917E0,1.066547104E1,-1.499851044E1,5.236111450E0,1.913437877E1
1.556766917E0,1.235815109E1,-1.363858841E1,5.804629211E0,1.929841218E1
1.566805917E0,1.325837906E1,-1.260588593E1,6.151008911E0,1.930098147E1
1.576844917E0,1.238299942E1,-1.155641830E1,6.488556976E0,1.813810493E1
1.586884917E0,1.369412292E1,-1.012958542E1,8.596024475E0,1.907954769E1
1.596923917E0,1.846979187E1,-8.519084473E0,1.135733231E1,2.329585820E1
1.606962917E0,1.879237106E1,-6.247707825E0,1.075513458E1,2.253574900E1
1.617001917E0,1.472772354E1,-4.511318665E0,7.454498291E0,1.711219979E1
1.627040917E0,1.100616257E1,-3.417094116E0,4.630770264E0,1.241999114E1
1.637079917E0,8.662935333E0,-2.546205139E0,2.376308441E0,9.336833029E0
1.647118917E0,7.249125366E0,-1.858385468E0,1.920506287E-1,7.486006850E0
1.657158917E0,6.949598236E0,-1.225052490E0,-2.686912537E0,7.550971343E0
1.667197917E0,8.328231354E0,-1.076411591E0,-9.869576111E0,1.295865086E1
1.677236917E0,1.013871643E1,-2.431842957E0,-1.030876282E1,1.466212883E1
1.687275917E0,1.034334091E1,-4.348607025E0,-5.925428009E0,1.268880536E1
1.697314917E0,9.765542450E0,-5.945336609E0,-3.604654083E0,1.198775950E1
1.707353917E0,9.350156250E0,-7.172035675E0,-2.297721863E0,1.200595866E1
1.717393917E0,9.343569946E0,-8.242310028E0,-2.874472504E0,1.278673399E1
1.727432917E0,9.411528625E0,-8.562194824E0,-4.643793182E0,1.354447734E1
1.737471917E0,8.677754517E0,-8.137078857E0,-4.765041046E0,1.281487776E1
1.747510917E0,7.705825653E0,-7.218588867E0,-4.700225830E0,1.155767698E1
1.757549917E0,7.056176605E0,-6.073021088E0,-4.140689392E0,1.018903931E1
1.767588917E0,6.004763031E0,-5.111570435E0,-3.592229919E0,8.665416733E0
1.777627917E0,4.603227539E0,-4.290527802E0,-3.743116150E0,7.321833862E0
1.787667917E0,3.415297852E0,-3.518283691E0,-4.704117737E0,6.794946889E0
1.797706917E0,2.596799927E0,-2.779569855E0,-5.265899506E0,6.496081591E0
1.807745917E0,1.490600281E0,-2.095342712E0,-4.886588287E0,5.521874262E0
1.817784917E0,4.225712585E-1,-1.768123169E0,-3.592678986E0,4.026433695E0
1.827823917E0,4.460723877E-2,-1.601968689E0,-1.618434448E0,2.277635517E0
1.837862917E0,6.198609924E-1,-1.490899658E0,8.949888611E-1,1.846080849E0
1.847901917E0,1.474882965E0,-1.345402222E0,2.802023163E0,3.440453561E0
1.857941917E0,2.373314667E0,-1.069076843E0,3.983815613E0,4.758816517E0
1.867980917E0,3.047362976E0,-7.984396362E-1,3.859424286E0,4.981875428E0
1.878019917E0,3.529660034E0,-7.964936829E-1,2.845582581E0,4.603286040E0
1.888058917E0,4.486170959E0,-1.013542328E0,1.824106750E0,4.947763471E0
1.898097917E0,6.450386353E0,-1.274000702E0,-5.409750366E-1,6.597212735E0
1.908136917E0,9.922116852E0,-2.127974854E0,-1.000639160E1,1.425147546E1
1.918181542E0,1.094898148E1,-3.959416351E0,-1.356284592E1,1.787478566E1
1.928221542E0,1.066412384E1,-5.741161194E0,-8.575217743E0,1.483977185E1
1.938260542E0,1.413914749E1,-6.740632782E0,-7.244934082E-1,1.568045002E1
1.948299542E0,1.971250763E1,-8.132288818E0,3.015030212E0,2.153619014E1
1.958338542E0,2.691403198E1,-1.050979477E1,2.187850342E0,2.897598303E1
1.968377542E0,3.211736160E1,-1.312695236E1,-7.994874573E-1,3.470563319E1
1.978416542E0,3.347937927E1,-1.621413254E1,-7.135661316E0,3.787723053E1
1.988455542E0,3.380046158E1,-1.787971893E1,-1.660646667E0,3.827418581E1
1.998495542E0,3.383548874E1,-1.934891373E1,5.864504700E0,3.941590004E1
2.008534542E0,3.104529099E1,-2.075658646E1,3.958817596E0,3.755420363E1
2.018573542E0,2.767519913E1,-2.156610306E1,-1.560355225E0,3.512048058E1
2.028612542E0,2.550830521E1,-2.111733627E1,-5.260660400E0,3.353043503E1
2.038651542E0,2.336700806E1,-1.944202011E1,-4.799619141E0,3.077410527E1
2.048690542E0,1.986279510E1,-1.727722183E1,-5.148992615E0,2.682433874E1
2.058730542E0,1.577464645E1,-1.491588226E1,-7.077881470E0,2.283461015E1
2.068769542E0,1.324550583E1,-1.188797882E1,-7.663613434E0,1.937778202E1
2.078808542E0,1.150896698E1,-8.719817047E0,-6.619833984E0,1.588438643E1
2.088847542E0,9.378746796E0,-5.965394897E0,-5.382207642E0,1.234969582E1
2.098886542E0,7.045698395E0,-3.840114441E0,-4.274361420E0,9.091672582E0
2.108925542E0,4.744833069E0,-2.183209991E0,-3.873495026E0,6.502600282E0
2.118964542E0,2.903212738E0,-1.077758789E0,-3.659739532E0,4.794152861E0
2.129004542E0,1.224902802E0,-5.062472534E-1,-3.026107178E0,3.303634030E0
2.139043542E0,-2.742297363E-1,-1.020877075E-1,-2.166744232E0,2.186413597E0
2.149082542E0,-1.048419800E0,1.483415222E-1,-1.374142456E0,1.734778595E0
2.159121542E0,-1.199455719E0,3.100053406E-1,-8.337661743E-1,1.493306186E0
2.169160542E0,-1.207838287E0,5.614823914E-1,-6.668632507E-1,1.489577927E0
2.179199542E0,-8.574169922E-1,1.083746338E0,-6.237528992E-1,1.516158865E0
2.189238542E0,2.013313293E-1,2.718945923E0,-5.363346863E-1,2.778642858E0
2.199278542E0,1.186283112E0,4.232298889E0,-4.803511047E-1,4.421578756E0
2.209317542E0,1.276994476E0,4.432133331E0,-2.285746765E-1,4.618091288E0
2.219356542E0,8.846603394E-1,3.980971527E0,1.797761536E-1,4.082043322E0
2.229395542E0,2.609074402E-1,3.453618164E0,4.620890808E-1,3.494149029E0
2.239434542E0,-4.237687683E-1,2.843337250E0,7.816744995E-1,2.979120962E0
2.249473542E0,-9.949809265E-1,2.393971710E0,1.115929413E0,2.822478706E0
2.259512542E0,-1.360969849E0,2.326611786E0,1.329984283E0,3.005697843E0
2.269552542E0,-1.595981140E0,2.458337860E0,1.411564636E0,3.253167004E0
2.279591542E0,-1.761686554E0,2.575693817E0,1.458866272E0,3.444710286E0
2.289630542E0,-1.821112976E0,2.665507050E0,1.455872498E0,3.541319674E0
2.299669542E0,-1.697919159E0,2.664010162E0,1.353186035E0,3.436712391E0
2.309708542E0,-1.693428497E0,2.493814087E0,1.166374512E0,3.232218785E0
2.319747542E0,-1.651665344E0,2.037413177E0,8.993298340E-1,2.772696344E0
2.329786542E0,-1.325044556E0,1.503473511E0,7.482939148E-1,2.139186634E0
2.339826542E0,-8.520281982E-1,1.039288788E0,7.394622803E-1,1.533909286E0
2.349865542E0,-5.776487732E-1,6.812333679E-1,6.337820435E-1,1.095187968E0
2.359904542E0,-3.899391174E-1,3.968247986E-1,4.323010254E-1,7.045612909E-1
2.369943542E0,-2.209405518E-1,2.222877502E-1,1.721420288E-1,3.575743970E-1
2.379982542E0,-6.825805664E-2,8.966354370E-2,-4.625381470E-2,1.218118580E-1
2.390021542E0,4.790039062E-3,-4.864883423E-2,-2.100132751E-1,2.156275244E-1
2.400060542E0,4.984634399E-2,-1.880090332E-1,-5.373825073E-1,5.714997933E-1
2.410100542E0,1.445993042E-1,-7.367678833E-1,-4.362079010E0,4.426225159E0
2.420139542E0,6.248007202E-1,-1.510209503E0,-7.462731171E0,7.639598498E0
2.430178542E0,1.028960266E0,-1.571581879E0,-5.168901215E0,5.499651680E0
2.440217542E0,1.072669373E0,-1.514550476E0,-3.877686310E0,4.298945667E0
2.450256542E0,1.105301514E0,-1.344354401E0,-2.160756683E0,2.774499889E0
2.460295542E0,8.836125183E-1,-9.360035706E-1,1.616638184E-2,1.287297603E0
2.470334542E0,6.268963623E-1,-7.481442261E-1,7.858657837E-1,1.253117657E0
2.480374542E0,5.041516113E-1,-7.167095947E-1,1.279838562E0,1.551073253E0
2.490413542E0,1.169517975E0,-9.306147766E-1,1.607507172E0,2.194970492E0
2.500452542E0,4.194128265E0,-1.938319244E0,2.241738281E0,5.135482832E0
2.510491542E0,1.354802673E1,-6.450086975E0,6.204597473E-1,1.501791000E1
2.520530542E0,6.683481628E1,-2.766546936E1,-5.565112289E1,9.126509926E1
2.530569542E0,8.774872559E1,-4.561239853E1,-4.047388412E1,1.068572180E2
2.540609542E0,4.791805389E1,-3.752501633E1,1.651350998E1,6.306316477E1
2.550648542E0,3.213756958E1,-2.885175247E1,2.370874741E1,4.926816115E1
2.560687542E0,2.586815689E1,-2.197759735E1,1.813523758E1,3.848458351E1
2.570726542E0,2.694516724E1,-1.605216934E1,1.425500656E1,3.445169648E1
2.580765542E0,2.301838303E1,-1.239617203E1,8.245154114E0,2.741338367E1
2.590804542E0,1.787193512E1,-9.823771362E0,4.773423615E0,2.094512167E1
2.600843542E0,1.390204056E1,-7.600145416E0,2.584375763E0,1.605328440E1
2.610883542E0,9.129814453E0,-5.805826721E0,6.750961304E-1,1.084052077E1
2.620922542E0,1.772464142E0,-4.169279938E0,-3.269351349E0,5.586875923E0
2.630961542E0,-8.339158630E-1,-3.612138519E0,-4.314328308E0,5.688267671E0
2.641000542E0,1.322200470E0,-3.475622406E0,-3.676804047E0,5.229441002E0
2.651039542E0,-8.505313110E-1,-2.712658997E0,-9.787097626E0,1.019162412E1
2.661078542E0,-2.158661041E0,-1.671573944E0,-1.048210236E1,1.083182564E1
2.671117542E0,-1.073268127E-1,-8.427474976E-1,-5.693410492E0,5.756445554E0
2.681157542E0,1.372795258E0,-4.938230896E-1,-2.090402985E0,2.549159215E0
2.691196542E0,2.188149719E0,-2.790197754E-1,2.677931213E-1,2.222063092E0
2.701235542E0,2.386487274E0,-1.640588379E-1,1.056053925E0,2.614858831E0
2.711274542E0,2.211351471E0,-5.942642212E-2,9.114546204E-1,2.392562717E0
2.721313542E0,2.102078705E0,-5.239105225E-2,6.971003723E-1,2.215271684E0
2.731352542E0,2.324067078E0,-2.616558838E-1,5.863307190E-1,2.411127391E0
2.741391542E0,3.043321381E0,-1.095721436E0,3.044668579E-1,3.248862964E0
2.751431542E0,4.106260986E0,-1.806293793E0,1.683998108E-1,4.489146361E0
2.761470542E0,5.969137115E0,-2.829865265E0,-1.194066925E0,6.713012077E0
2.771509542E0,1.205922272E1,-5.434898071E0,-1.276425659E1,1.838176313E1
2.781548542E0,1.647459091E1,-8.313112793E0,-1.177137131E1,2.188801436E1
2.791587542E0,1.637400009E1,-1.014620087E1,-6.062692566E0,2.019429405E1
2.801626542E0,1.455258774E1,-1.153561157E1,-3.857927399E0,1.896659558E1
2.811665542E0,1.197345108E1,-1.280601974E1,-3.951333160E0,1.797138576E1
2.821705542E0,8.616831207E0,-1.341270813E1,-6.916067963E0,1.737764413E1
2.831744542E0,5.838907928E0,-1.275003616E1,-8.347391510E0,1.631977981E1
2.841783542E0,4.771627350E0,-1.141541153E1,-6.818171539E0,1.412683656E1
2.851822542E0,6.495292969E0,-9.366771698E0,-4.618944855E0,1.229877613E1
2.861861542E0,8.641978912E0,-7.390880585E0,-3.206781464E0,1.181492119E1
2.871900542E0,8.243357849E0,-5.782774658E0,-3.251538391E0,1.058139562E1
2.881939542E0,6.245911560E0,-4.594096527E0,-4.684358826E0,9.058716892E0
2.891979542E0,4.234095154E0,-4.060456238E0,-5.735473022E0,8.204298716E0
2.902018542E0,2.244881744E0,-4.139342194E0,-4.544399872E0,6.544097954E0
2.912057542E0,5.489085388E-1,-4.236041107E0,-2.294428711E0,4.848685178E0
2.922095167E0,-6.930587769E-2,-4.009562073E0,-3.706292725E-1,4.027251839E0
2.932134167E0,-1.686991882E-1,-3.540287933E0,2.499801636E-1,3.553109645E0
2.942173167E0,-2.643502808E-1,-3.132386169E0,4.278103638E-1,3.172498368E0
2.952212167E0,4.396357727E-1,-2.470312958E0,1.698817291E0,3.030132986E0
2.962252167E0,2.157762909E0,-1.554816742E0,3.287164307E0,4.228338332E0
2.972291167E0,3.741918640E0,-1.162033539E0,2.768941956E0,4.797844996E0
2.982330167E0,5.432802429E0,-1.330583038E0,1.603315887E0,5.818626581E0
2.992369167E0,7.095844116E0,-1.722318420E0,3.359014893E-1,7.309597408E0
3.002408167E0,1.106588837E1,-2.532583466E0,-3.865262146E0,1.199200216E1
3.012447167E0,1.433509003E1,-3.961212616E0,-5.849236450E0,1.598122581E1
3.022486167E0,1.379456406E1,-5.653892670E0,-2.239792328E0,1.507558190E1
3.032526167E0,1.920895477E1,-7.943531342E0,-5.685626678E0,2.155017365E1
3.042565167E0,3.062586319E1,-1.132694550E1,-1.054152878E1,3.431278216E1
3.052604167E0,3.828468658E1,-1.533351379E1,9.294172668E-1,4.125163862E1
3.062643167E0,4.183305771E1,-1.854328903E1,7.420069885E0,4.635639894E1
3.072682167E0,4.276651657E1,-2.135234756E1,3.942651215E0,4.796292511E1
3.082721167E0,3.650159454E1,-2.305595490E1,3.758983154E0,4.333674439E1
3.092761167E0,3.088108246E1,-2.310639999E1,6.652615814E0,3.913827119E1
3.102800167E0,2.826646957E1,-2.235571106E1,5.206173706E0,3.641257151E1
3.112839167E0,2.515788391E1,-2.108769791E1,-5.382806396E-1,3.283138547E1
3.122878167E0,2.088322311E1,-1.954216187E1,-7.830366669E0,2.965332595E1
3.132917167E0,1.759845383E1,-1.698952011E1,-9.458530884E0,2.622619258E1
3.142956167E0,1.464868790E1,-1.350282074E1,-6.986870728E0,2.111223786E1
3.152995167E0,9.842931519E0,-9.811646576E0,-7.326963501E0,1.571101854E1
3.163035167E0,4.309388580E0,-6.121370544E0,-1.039228912E1,1.280787572E1
3.173074167E0,5.225633240E-1,-2.820584564E0,-1.329939377E1,1.360524327E1
3.183113167E0,-3.402424622E-1,-5.043013000E-1,-1.149878815E1,1.151486924E1
3.193152167E0,1.420545959E-1,7.171586609E-1,-7.234605560E0,7.271451964E0
3.203191167E0,-1.895059204E-1,1.433269501E0,-4.459676056E0,4.688164297E0
3.213230167E0,5.568420410E-2,1.881886597E0,-3.172203369E0,3.688830724E0
3.223269167E0,7.212002563E-1,2.054328003E0,-2.791395264E0,3.540096167E0
3.233309167E0,1.185684357E0,1.907333679E0,-2.272424469E0,3.194946341E0
3.243348167E0,9.954299927E-1,1.467697906E0,-1.356928253E0,2.232996260E0
3.253387167E0,4.909790039E-1,1.184486847E0,-3.320095825E-1,1.324499844E0
3.263426167E0,3.847000122E-2,1.172212372E0,2.589614868E-2,1.173129318E0
3.273465167E0,-1.932481384E-1,1.264121246E0,2.522254944E-1,1.303443542E0
3.283504167E0,-2.320175171E-1,1.516646118E0,7.077282715E-1,1.689652888E0
3.293543167E0,-3.112028503E-1,1.758543091E0,1.037043457E0,2.065134414E0
3.303583167E0,-3.954776001E-1,1.941612396E0,1.068178711E0,2.251059081E0
3.313622167E0,-3.733236694E-1,2.082319794E0,9.686357117E-1,2.326731920E0
3.323661167E0,-2.484832764E-1,2.233655090E0,6.048921204E-1,2.327413474E0
3.333700167E0,-7.334747314E-3,2.648741913E0,2.143542480E-1,2.657411384E0
3.343739167E0,8.622070312E-2,3.098706207E0,-2.215393066E-2,3.099984672E0
3.353778167E0,1.368154907E-1,3.583997040E0,-5.298980713E-2,3.586998910E0
3.363817167E0,1.651066589E-1,4.200415192E0,-3.522175598E-1,4.218388934E0
3.373857167E0,1.212478638E-2,4.824916534E0,-7.012916565E-1,4.875630889E0
3.383896167E0,-7.065307617E-2,5.031037903E0,-7.696994019E-1,5.090065953E0
3.393935167E0,-1.422042847E-2,4.737947388E0,-5.653742981E-1,4.771582103E0
3.403974167E0,7.589218140E-2,4.114942932E0,-3.872447205E-1,4.133820682E0
3.414013167E0,9.789642334E-2,3.336112518E0,-2.454895020E-1,3.346564737E0
3.424052167E0,-6.541397095E-2,2.455942841E0,-8.442443848E-2,2.458263963E0
3.434091167E0,-2.775228882E-1,1.558409271E0,8.532257080E-2,1.585225016E0
3.444131167E0,-3.405418396E-1,8.255332947E-1,1.980381775E-1,9.147092898E-1
3.454170167E0,-3.552113342E-1,2.444416809E-1,2.930905151E-1,5.213721103E-1
3.464209167E0,-2.404000854E-1,-1.440005493E-1,3.852987671E-1,4.764278531E-1
3.474248167E0,-7.394622803E-2,-3.526666260E-1,4.677772522E-1,5.904721428E-1
3.484287167E0,7.274871826E-2,-4.746629333E-1,5.656736755E-1,7.420134658E-1
3.494326167E0,2.203417969E-1,-5.349874878E-1,6.251000977E-1,8.517700697E-1
3.504365167E0,4.111949158E-1,-4.855902100E-1,6.366261292E-1,9.000955166E-1
3.514405167E0,5.848338318E-1,-4.188290405E-1,5.688171387E-1,9.170612375E-1
3.524444167E0,7.060816956E-1,-4.034111023E-1,4.872367859E-1,9.479934408E-1
3.534483167E0,8.357121277E-1,-3.652404785E-1,4.489164734E-1,1.016533997E0
3.544522167E0,9.943821716E-1,-2.941383362E-1,3.580554199E-1,1.097049200E0
3.554561167E0,1.308878174E0,-2.207908630E-1,3.373983765E-1,1.369579623E0
3.564600167E0,1.971999207E0,-2.859054565E-1,4.757107544E-1,2.048615025E0
3.574639167E0,3.315455475E0,-4.722679138E-1,5.468128967E-1,3.393270743E0
3.584679167E0,5.325625305E0,-9.026229858E-1,8.234376526E-1,5.463978652E0
3.594718167E0,2.536131088E1,-5.491031342E0,-1.658745621E1,3.079758462E1
3.604757167E0,8.371266861E1,-3.340094238E1,-1.313825386E2,1.593260973E2
3.614796167E0,7.552783905E1,-5.693739807E1,-2.757700333E1,9.852315912E1
3.624835167E0,4.470767990E1,-4.580534729E1,5.100523407E1,8.184400030E1
3.634874167E0,2.330383942E1,-3.152189987E1,3.667583221E1,5.368254625E1
3.644913167E0,2.383014496E1,-2.264176620E1,2.557147385E1,4.164643635E1
3.654953167E0,2.580304230E1,-1.837384140E1,1.646950150E1,3.570209404E1
3.664992167E0,1.836321350E1,-1.507440262E1,1.045635590E1,2.595728420E1
3.675031167E0,1.381881363E1,-1.296947983E1,5.764512634E0,1.980900359E1
3.685070167E0,1.020936951E1,-1.117336487E1,-4.300556946E-1,1.514134261E1
3.695109167E0,4.441264343E0,-8.434061279E0,-3.138194092E1,3.279762849E1
3.705148167E0,4.977748718E0,-7.078929291E0,-3.150962540E1,3.267637855E1
3.715187167E0,5.665718079E0,-6.784790955E0,-3.536845093E0,9.520662942E0
3.725227167E0,5.405409393E0,-6.700665894E0,1.813478851E0,8.798072497E0
3.735266167E0,4.800517273E0,-6.137387238E0,1.416354675E0,7.919504325E0
3.745305167E0,4.371509399E0,-4.678371277E0,1.375489655E0,6.548986488E0
3.755344167E0,3.432661743E0,-3.627107391E0,1.167422333E0,5.128542637E0
3.765383167E0,2.379302216E0,-3.206332397E0,4.532574463E-1,4.018344036E0
3.775422167E0,1.518592072E0,-2.895129547E0,-2.689906311E-1,3.280282447E0
3.785461167E0,1.030307465E0,-2.357896729E0,-6.463558960E-1,2.653108818E0
3.795501167E0,8.190966797E-1,-1.776805115E0,-7.259902954E-1,2.086867915E0
3.805540167E0,8.746311951E-1,-1.311722260E0,-7.490423584E-1,1.745468266E0
3.815579167E0,1.044078827E0,-1.211879883E0,-8.484356689E-1,1.810689518E0
3.825618167E0,1.757944336E0,-1.154998169E0,-1.113684082E0,2.380059094E0
3.835657167E0,3.523073730E0,-1.360820160E0,-1.606758728E0,4.104333518E0
3.845696167E0,5.629643097E0,-1.798060913E0,-2.983146515E0,6.620050421E0
3.855735167E0,8.688532104E0,-2.328557739E0,-6.267766113E0,1.096346949E1
3.865775167E0,1.159384048E1,-3.289858704E0,-8.912616119E0,1.498916387E1
3.875814167E0,1.278850616E1,-4.636159058E0,-8.841663666E0,1.622389833E1
3.885853167E0,1.280931290E1,-5.876928864E0,-7.777975616E0,1.609700887E1
3.895892167E0,1.217283646E1,-6.834188232E0,-7.397017822E0,1.579873251E1
3.905931167E0,1.115585129E1,-7.368277588E0,-9.441166992E0,1.636704514E1
3.915970167E0,9.842482452E0,-7.233557739E0,-1.130583939E1,1.664394252E1
3.926005625E0,9.208850098E0,-6.292015686E0,-8.025261383E0,1.374034941E1
3.936045625E0,8.879385223E0,-4.771926727E0,-3.196752319E0,1.057515920E1
3.946084625E0,8.360863495E0,-3.376079407E0,-2.517764282E-1,9.020273938E0
3.956123625E0,7.152426453E0,-2.340981903E0,1.128353577E0,7.609900277E0
3.966162625E0,5.559888153E0,-1.612596588E0,1.110241241E0,5.894527941E0
3.976201625E0,4.162993011E0,-1.502276001E0,2.996768188E-1,4.435893393E0
3.986240625E0,3.850442963E0,-2.111958160E0,-1.145418091E0,4.538530696E0
3.996279625E0,4.429438934E0,-3.014281769E0,-2.704426117E0,6.001645148E0
4.006319625E0,5.833968201E0,-3.204835510E0,-9.767189026E-1,6.727565342E0
4.016358625E0,6.638694763E0,-2.609972534E0,2.411934357E0,7.530049942E0
4.026397625E0,6.006559296E0,-2.123334503E0,3.299588470E0,7.174579295E0
4.036436625E0,5.531596985E0,-2.288890228E0,3.186723175E0,6.781798307E0
4.046475625E0,5.771847382E0,-2.899021454E0,2.719694366E0,7.008229807E0
4.056514625E0,7.282505951E0,-4.149221649E0,2.207758942E0,8.667475570E0
4.066554625E0,1.102008362E1,-5.672454071E0,2.719993744E0,1.268926098E1
4.076593625E0,1.838641525E1,-7.658973083E0,3.855981445E0,2.028764963E1
4.086632625E0,3.157638657E1,-1.055230637E1,5.352868652E0,3.372050654E1
4.096671625E0,4.929264542E1,-1.457668762E1,6.882837067E0,5.186152871E1
4.106710625E0,5.943749908E1,-1.920835602E1,7.512727203E0,6.291437283E1
4.116749625E0,5.719755707E1,-2.343302078E1,5.124743042E0,6.202362444E1
4.126788625E0,4.755595688E1,-2.747147278E1,-1.727557526E1,5.757339969E1
4.136828625E0,3.578578308E1,-2.742896118E1,-3.248709274E1,5.557320737E1
4.146867625E0,3.135260193E1,-2.071257797E1,6.833290100E-1,3.758275499E1
4.156906625E0,2.367267242E1,-1.614168320E1,2.005080414E0,2.872228584E1
4.166945625E0,1.543440399E1,-1.277997391E1,-1.390608215E-1,2.003915910E1
4.176984625E0,8.483159180E0,-8.991502075E0,-7.529791718E0,1.447442097E1
4.187023625E0,1.560205536E0,-5.367238770E0,-1.947495163E1,2.026117554E1
4.197062625E0,-3.104095001E0,-2.670147400E0,-1.888263336E1,1.932146308E1
4.207102625E0,-3.435206451E0,-4.311035156E-1,-1.075513458E1,1.129864653E1
4.217141625E0,-2.768343201E0,9.304650879E-1,-5.230872345E0,5.990952749E0
4.227180625E0,-1.934577026E0,1.922901306E0,-3.825295258E0,4.698193431E0
4.237219625E0,-6.566844177E-1,2.270328827E0,-3.481011200E0,4.207501204E0
4.247258625E0,3.359014893E-1,2.019300842E0,-2.137255554E0,2.959436941E0
4.257297625E0,4.493655396E-1,1.351988525E0,-2.225871277E-1,1.441994241E0
4.267336625E0,2.107617188E-1,8.749305725E-1,8.557704163E-1,1.241880435E0
4.277376625E0,-1.098715210E-1,8.032296753E-1,9.684860229E-1,1.263018147E0
4.287415625E0,-3.980223083E-1,8.321195984E-1,1.010398865E0,1.368119384E0
4.297454625E0,-4.414320374E-1,8.743318176E-1,1.090781708E0,1.465988781E0
4.307493625E0,-4.108955383E-1,9.469308472E-1,1.081201630E0,1.494827795E0
4.317532625E0,-2.595602417E-1,1.059347076E0,9.092092896E-1,1.419946928E0
4.327571625E0,-1.616638184E-1,1.075064392E0,7.036866760E-1,1.295018755E0
4.337610625E0,-1.591191101E-1,1.016835480E0,5.529501343E-1,1.168343757E0
4.347650625E0,-1.053808594E-1,1.077010345E0,4.273612976E-1,1.163483600E0
4.357689625E0,-9.684860229E-2,1.084943848E0,3.625460815E-1,1.148008042E0
4.367728625E0,-6.256988525E-2,1.137484589E0,3.339555359E-1,1.187144675E0
4.377767625E0,-3.293151855E-2,1.232387238E0,2.157014465E-1,1.251554994E0
4.387806625E0,-1.167572021E-2,1.418001251E0,4.730163574E-2,1.418838016E0
4.397845625E0,-9.415420532E-2,1.815724182E0,-4.887336731E-1,1.882705480E0
4.407884625E0,-1.844165039E-1,2.392923889E0,-1.193917236E0,2.680584368E0
4.417924625E0,-1.324745178E-1,2.930007019E0,-1.471140747E0,3.281271968E0
4.427963625E0,3.577560425E-2,3.315455475E0,-1.308429108E0,3.564479153E0
4.438002625E0,1.779798889E-1,3.483406219E0,-9.915380859E-1,3.626147199E0
4.448041625E0,2.628533936E-1,3.517834625E0,-6.979985046E-1,3.596033130E0
4.458080625E0,2.489323425E-1,3.374732208E0,-5.038522339E-1,3.421206200E0
4.468119625E0,8.472381592E-2,3.053051147E0,-3.363505554E-1,3.072691187E0
4.478158625E0,-1.363664246E-1,2.571951599E0,-2.595602417E-1,2.588610119E0
4.488198625E0,-3.222798157E-1,2.035616913E0,-2.546205139E-1,2.076639618E0
4.498237625E0,-4.096980286E-1,1.547032928E0,-2.760260010E-1,1.623993137E0
4.508276625E0,-3.748205566E-1,1.123862915E0,-2.875520325E-1,1.219116267E0
4.518315625E0,-3.038681030E-1,7.671546936E-1,-2.935395813E-1,8.758011382E-1
4.528354625E0,-2.145039368E-1,4.924758911E-1,-2.890489197E-1,6.099948526E-1
4.538393625E0,-1.047821045E-1,2.567161560E-1,-2.766247559E-1,3.916678819E-1
4.548432625E0,-1.422042847E-2,6.780899048E-2,-2.493814087E-1,2.588269050E-1
4.558472625E0,6.256988525E-2,-6.122268677E-2,-2.784210205E-1,2.918586517E-1
4.568511625E0,1.029858398E-1,-1.800755310E-1,-4.514611816E-1,4.968404961E-1
4.578550625E0,3.156935120E-1,-4.070036316E-1,-2.118993530E0,2.180698955E0
4.588589625E0,2.126627655E0,-1.797462158E0,-1.216565140E1,1.248024396E1
4.598628625E0,4.547393646E0,-3.048410797E0,-1.911749496E1,1.988592998E1
4.608667625E0,4.507426758E0,-3.660038910E0,-1.251307892E1,1.379456142E1
4.618706625E0,2.474055176E0,-2.986439667E0,3.921694794E0,5.515384026E0
4.628745625E0,2.840792542E0,-3.180286560E0,6.228397980E0,7.548328707E0
4.638785625E0,9.275311890E0,-3.952979736E0,7.100933533E0,1.233210106E1
4.648824625E0,6.337356400E1,-1.382569931E1,-3.450953705E1,7.347289788E1
4.658863625E0,1.155225696E2,-3.315739883E1,-8.542241318E1,1.474512321E2
4.668902625E0,6.347490326E1,-3.193459167E1,2.653756485E1,7.584934962E1
4.678941625E0,3.838228363E1,-1.915955750E1,4.510285812E1,6.224593281E1
4.688980625E0,3.902040665E1,-1.462159424E1,3.041495178E1,5.158926676E1
4.699020625E0,3.216960297E1,-1.421114777E1,1.859508133E1,3.978212068E1
4.709059625E0,2.377146698E1,-1.320628738E1,9.770033112E0,2.889536668E1
4.719098625E0,1.715357895E1,-1.170326294E1,5.338348846E0,2.144083960E1
4.729137625E0,1.153396500E1,-1.054766602E1,2.974763947E0,1.591021142E1
4.739176625E0,6.497687988E0,-9.322014771E0,1.520837402E0,1.146441691E1
4.749215625E0,2.359842682E0,-7.996371460E0,-1.392853546E0,8.452860759E0
4.759254625E0,-2.787203979E-1,-6.043981476E0,-7.060068512E0,9.297954858E0
4.769294625E0,-2.591111755E0,-3.093018036E0,-1.752480698E1,1.798331116E1
4.779333625E0,-1.970352631E0,-1.457818451E0,-1.388108414E1,1.409581572E1
4.789372625E0,-3.153941345E-1,-1.098415833E0,-7.358248444E0,7.446462983E0
4.799411625E0,1.429527283E0,-9.648934937E-1,-2.541265411E0,3.071253424E0
4.809450625E0,2.241588593E0,-8.153544617E-1,4.568499756E-1,2.428628052E0
4.819489625E0,2.031126251E0,-6.083349609E-1,8.135581970E-1,2.270995864E0
4.829528625E0,1.600322113E0,-3.779640198E-1,7.192543030E-1,1.794774197E0
4.839568625E0,1.331630859E0,-2.100132751E-1,5.724096680E-1,1.464581561E0
4.849607625E0,1.189276886E0,-7.753875732E-2,4.345463562E-1,1.268551263E0
4.859646625E0,9.898915100E-1,-3.442840576E-3,3.167413330E-1,1.039337350E0
4.869685625E0,8.147557068E-1,5.493576050E-2,2.303709412E-1,8.484783851E-1
4.879724625E0,7.403604126E-1,3.098556519E-2,1.541793823E-1,7.568784101E-1
4.889763625E0,1.030606842E0,-2.671943665E-1,4.236190796E-2,1.065522324E0
4.899802625E0,3.748205566E0,-1.434467010E0,-3.906426544E0,5.600616834E0
4.909842625E0,8.703500977E0,-3.480711823E0,-7.607180786E0,1.207209524E1
4.919881375E0,9.856553192E0,-5.217849426E0,-4.613106995E0,1.206890010E1
4.929920375E0,1.216250793E1,-7.671846313E0,-3.429069214E0,1.478317763E1
4.939959375E0,1.637400009E1,-1.090078171E1,-2.417472839E0,1.981865525E1
4.949998375E0,2.074700638E1,-1.428958466E1,-1.906136169E0,2.526388447E1
4.960037375E0,2.191697342E1,-1.689057587E1,-3.800746307E0,2.793010830E1
4.970076375E0,1.871632919E1,-1.825873077E1,-7.472161560E0,2.719403292E1
4.980116375E0,1.249302063E1,-1.743334717E1,-1.008093658E1,2.369857465E1
4.990155375E0,6.641838226E0,-1.526525574E1,-1.127530289E1,2.010657860E1
5.000194375E0,3.465593262E0,-1.270363266E1,-9.013206940E0,1.595714632E1
5.010233375E0,4.609813843E0,-9.679471436E0,-4.902006226E0,1.178864776E1
5.020272375E0,9.136849823E0,-6.988816681E0,-1.860630798E0,1.165279066E1
5.030311375E0,1.067550018E1,-4.924609222E0,-5.987548828E-3,1.175662009E1
5.040350375E0,9.332193604E0,-3.030448151E0,4.451742554E-1,9.821997433E0
5.050390375E0,6.391558685E0,-1.632654877E0,-3.158432007E-1,6.604342609E0
5.060429375E0,3.844305725E0,-9.003776550E-1,-1.231788483E0,4.136020950E0
5.070468375E0,2.398312683E0,-6.209088135E-1,-1.443598022E0,2.867299554E0
5.080507375E0,1.639390869E0,-7.189549255E-1,-8.225395203E-1,1.970043114E0
5.090546375E0,1.490749969E0,-8.776249695E-1,-6.197113037E-2,1.731011692E0
5.100585375E0,2.275567932E0,-6.376739502E-1,1.538051605E0,2.819652500E0
5.110624375E0,3.457360382E0,-2.749781799E-1,2.844235382E0,4.485379440E0
5.120664375E0,4.496349792E0,-1.224453735E-1,3.310366058E0,5.584861481E0
5.130703375E0,5.911057892E0,5.448669434E-2,1.519789581E0,6.103550981E0
5.140742375E0,8.635991364E0,1.194366302E0,-4.765041046E0,9.935415133E0
5.150781375E0,1.027927414E1,2.130070496E0,-6.159690857E0,1.217137908E1
5.160820375E0,9.363328857E0,8.566685486E-1,1.984273682E0,9.609534346E0
5.170859375E0,9.114097137E0,-1.216071167E0,6.333030396E0,1.116480496E1
5.180898375E0,1.276275970E1,-2.917882233E0,6.301446075E0,1.452963505E1
5.190938375E0,1.885853348E1,-4.941973114E0,6.700516205E0,2.061466227E1
5.200977375E0,2.896461777E1,-7.770191803E0,6.914571075E0,3.077557889E1
5.211016375E0,4.854045959E1,-1.040950333E1,9.837542725E-1,4.965381908E1
5.221055375E0,5.654910553E1,-1.289867706E1,3.425177307E0,5.810257349E1
5.231094375E0,4.908083588E1,-1.621637787E1,7.200775909E0,5.218956347E1
5.241133375E0,4.486694870E1,-1.963586700E1,-1.108923981E1,5.021535222E1
5.251173375E0,4.136258606E1,-2.088651627E1,-2.561578171E1,5.294599475E1
5.261212375E0,3.369957138E1,-1.904309967E1,-6.231840820E0,3.920633362E1
5.271251375E0,2.463606903E1,-1.620230713E1,-6.072871399E-1,2.949270166E1
5.281290375E0,1.752615417E1,-1.344983093E1,-5.287155304E0,2.271603054E1
5.291329375E0,1.048674271E1,-1.028376480E1,-1.054616913E1,1.808173870E1
5.301368375E0,4.143084412E0,-7.085066528E0,-1.233240463E1,1.481389618E1
5.311407375E0,-8.994795227E-1,-4.353397064E0,-1.088326813E1,1.175613264E1
5.321447375E0,-2.718197479E0,-2.267484741E0,-6.659800873E0,7.542084079E0
5.331486375E0,-2.101180573E0,-7.545808411E-1,-3.795357513E0,4.403304520E0
5.341525375E0,-5.809419250E-1,1.492396545E-1,-2.866539001E0,2.928619443E0
5.351564375E0,4.385879517E-1,6.053411865E-1,-2.004930725E0,2.139753387E0
5.361603375E0,5.101391602E-1,9.707313538E-1,-1.796713715E0,2.104932658E0
5.371642375E0,1.965412903E-1,1.232087860E0,-1.355880432E0,1.842574482E0
5.381681375E0,-1.805245972E-1,1.381776581E0,-2.335144043E-1,1.412948911E0
5.391721375E0,-2.776725769E-1,1.402583313E0,6.007008362E-1,1.550865405E0
5.401760375E0,-1.431024170E-1,1.339564362E0,7.572752380E-1,1.545437403E0
5.411799375E0,-3.100053406E-1,1.281634827E0,9.812095642E-1,1.643612895E0
5.421838375E0,-4.505630493E-1,1.360820160E0,1.119521942E0,1.818836977E0
5.431877375E0,-3.617976379E-1,1.533710632E0,1.079704742E0,1.910216785E0
5.441916375E0,-4.321513367E-1,1.587299194E0,1.082399139E0,1.969228633E0
5.451955375E0,-8.924441528E-1,1.486558685E0,1.338815918E0,2.190602966E0
5.461994375E0,-1.758842468E0,1.346450043E0,1.867965546E0,2.897542032E0
5.472034375E0,-3.067720642E0,1.167272644E0,2.065554657E0,3.878137621E0
5.482073375E0,-4.993016968E0,8.086184692E-1,1.604812775E0,5.306553148E0
5.492112375E0,-3.921245728E0,1.221310272E0,1.215622101E0,4.283165176E0
5.502151375E0,-2.996917877E0,1.935624847E0,8.530760193E-1,3.668228320E0
5.512190375E0,-1.397194519E0,2.795287170E0,2.980302429E-1,3.139204504E0
5.522229375E0,-1.715432739E-1,3.446732483E0,-7.888595581E-2,3.451900187E0
5.532269375E0,3.885919189E-1,3.650608521E0,-1.089733887E-1,3.672849228E0
5.542308375E0,4.409829712E-1,3.562441864E0,-4.311035156E-2,3.589890878E0
5.552347375E0,3.237767029E-1,3.528761902E0,-2.134561157E-1,3.550007807E0
5.562386375E0,3.891906738E-2,3.249442749E0,-4.969665527E-1,3.287456255E0
5.572425375E0,-3.128494263E-1,2.769091644E0,-7.972421265E-1,2.898506220E0
5.582464375E0,-6.158193970E-1,2.175276489E0,-1.479373627E0,2.701778611E0
5.592503375E0,-1.069376221E0,1.524429932E0,-3.026556244E0,3.553518653E0
5.602542375E0,-1.219364319E0,9.184899902E-1,-3.569626923E0,3.882358764E0
5.612582375E0,-9.976753235E-1,4.679269409E-1,-2.799179077E0,3.008274452E0
5.622621375E0,-5.942642212E-1,2.136058044E-1,-1.732197876E0,1.843715511E0
5.632660375E0,-2.592608643E-1,9.550140381E-2,-8.217910767E-1,8.669932454E-1
5.642699375E0,-5.568420410E-2,2.739303589E-2,-2.656974792E-1,2.728484185E-1
5.652738375E0,6.945556641E-2,-3.367996216E-2,-6.062393188E-2,9.815129481E-2
5.662777375E0,2.043251038E-1,-9.789642334E-2,-1.212478638E-1,2.569698469E-1
5.672816375E0,3.174897766E-1,-1.565744019E-1,-4.662803650E-1,5.854337540E-1
5.682856375E0,6.370751953E-1,-2.818638611E-1,-1.574126587E0,1.721390877E0
5.692895375E0,1.185384979E0,-4.474195862E-1,-3.654500427E0,3.867905791E0
5.702934375E0,3.055296478E0,-1.209335175E0,-1.054122940E1,1.104150558E1
5.712973375E0,5.250032501E0,-1.870959320E0,-1.314521439E1,1.427795473E1
5.723012375E0,7.663463745E0,-2.602188721E0,-7.319179688E0,1.091194089E1
5.733051375E0,5.165907440E0,-3.354075165E0,3.703897705E0,7.187160643E0
5.743091375E0,2.195843719E1,-5.250331879E0,4.999603271E-2,2.257745443E1
5.753130375E0,7.396059814E1,-1.062071411E1,-1.632714752E1,7.648232078E1
5.763169375E0,1.073465717E2,-2.323992233E1,-4.893563782E1,1.202417444E2
5.773208375E0,8.235963226E1,-2.136926239E1,7.289391632E0,8.539841703E1
5.783247375E0,4.629243439E1,-1.286799088E1,3.271297302E1,5.812670019E1
5.793286375E0,3.018053925E1,-1.015383499E1,2.413536026E1,3.995598740E1
5.803325375E0,2.595976639E1,-9.228908386E0,1.426638290E1,3.102598753E1
5.813365375E0,1.834255646E1,-8.449179840E0,8.112230530E0,2.176341659E1
5.823404375E0,1.174966644E1,-7.391629028E0,4.334236908E0,1.454222991E1
5.833443375E0,6.321654053E0,-6.644233246E0,1.910776520E0,9.368042074E0
5.843482375E0,2.986289978E0,-5.693410492E0,1.875599670E-1,6.431798318E0
5.853521375E0,-4.760101318E-1,-4.365372162E0,-6.197711792E0,7.595702154E0
5.863560375E0,-4.179907837E0,-2.578537903E0,-1.324086548E1,1.412235837E1
5.873599375E0,-4.585863647E0,-1.731299744E0,-1.083282303E1,1.189023124E1
5.883639375E0,-3.409909058E0,-1.715582428E0,-6.739135895E0,7.745105258E0
5.893678375E0,-1.940564575E0,-1.988165588E0,-4.219874725E0,5.052319861E0
5.903717375E0,-1.074914703E0,-2.176473999E0,-2.432890778E0,3.436777302E0
5.913756375E0,-3.939807129E-1,-2.080972595E0,-1.178798676E0,2.423888211E0
5.923795417E0,2.151026917E-1,-1.906136169E0,-3.799099731E-1,1.955493762E0
5.933834417E0,6.354286194E-1,-1.588945770E0,-1.288819885E-1,1.716137745E0
5.943873417E0,8.111631775E-1,-1.270857239E0,-7.649093628E-2,1.509607461E0
5.953913417E0,8.247848511E-1,-1.022673340E0,-1.856140137E-2,1.313954085E0
5.963952417E0,8.815168762E-1,-8.653504944E-1,-5.703140259E-2,1.236590499E0
5.973991417E0,9.413923645E-1,-7.643106079E-1,-1.977388000E-1,1.228613415E0
5.984030417E0,1.319057007E0,-7.857160950E-1,-1.379381561E0,2.063965761E0
5.994069417E0,3.208877106E0,-1.083297272E0,-5.847290497E0,6.757309480E0
6.004108417E0,5.021457825E0,-1.983375549E0,-6.447991333E0,8.409840039E0
6.014147417E0,6.645730133E0,-3.751199341E0,-3.786076813E0,8.518896826E0
6.024187417E0,8.681347046E0,-6.215075684E0,-1.862277374E0,1.083794396E1
6.034226417E0,1.140238861E1,-9.314380646E0,-2.511776733E-1,1.472532659E1
6.044265417E0,1.460497879E1,-1.294388306E1,1.569486237E0,1.957837585E1
6.054304417E0,1.667247940E1,-1.648387161E1,2.052082672E0,2.353509371E1
6.064343417E0,1.409738434E1,-1.953662338E1,-3.415447540E0,2.433271831E1
6.074382417E0,6.487808533E0,-2.261661850E1,-1.768003418E1,2.943104994E1
6.084421417E0,2.894530792E0,-2.209869553E1,-2.326941101E1,3.222105121E1
6.094461417E0,2.243684235E0,-1.913785263E1,-2.179797089E1,2.909369445E1
6.104500417E0,2.524500275E0,-1.541239975E1,-1.406759628E1,2.101933474E1
6.114539417E0,1.738634491E0,-1.141092087E1,-7.175777893E0,1.359131168E1
6.124578417E0,8.517288208E-1,-7.452702026E0,-3.690874786E0,8.360069747E0
6.134617417E0,9.180409241E-1,-3.806733856E0,-1.824855194E0,4.320198869E0
6.144656417E0,1.275198212E0,-1.111738129E0,1.701960754E-1,1.700311398E0
6.154695417E0,1.339115295E0,4.716691589E-1,2.719245300E0,3.067571771E0
6.164735417E0,2.012115784E0,9.437873840E-1,5.251379700E0,5.702309471E0
6.174774417E0,2.743045807E0,3.697311401E-2,7.174131317E0,7.680743940E0
6.184813417E0,3.339255981E0,-3.814068604E-1,6.864575043E0,7.643199083E0
6.194852417E0,4.925507355E0,6.137237549E-3,5.044060822E0,7.050050350E0
6.204891417E0,6.554719391E0,-2.315684509E-1,3.856580200E0,7.608625440E0
6.214930417E0,8.692124634E0,-1.172511749E0,2.565065918E0,9.138237117E0
6.224970417E0,1.523142609E1,-3.166664886E0,-3.466790771E-1,1.556098626E1
6.235009417E0,2.276106812E1,-6.343957672E0,1.831890564E0,2.369953256E1
6.245048417E0,3.492582138E1,-1.114148117E1,6.482120361E0,3.722853054E1
6.255087417E0,5.266977264E1,-1.833522171E1,8.444539490E0,5.640563405E1
6.265126417E0,5.352299835E1,-2.426020065E1,7.343279572E0,5.922155387E1
6.275165417E0,4.326393219E1,-2.782937851E1,2.975362701E0,5.152761318E1
6.285204417E0,3.688988708E1,-3.062661163E1,-3.597019958E0,4.808109464E1
6.295244417E0,3.133359146E1,-3.001513321E1,-4.771926727E0,4.365172918E1
6.305283417E0,2.664578979E1,-2.595168320E1,-3.184926910E0,3.733137734E1
6.315322417E0,2.008029282E1,-2.189781326E1,-4.601880341E0,3.006509085E1
6.325361417E0,1.387030655E1,-1.830962494E1,-7.412585449E0,2.413657375E1
6.335400417E0,8.270002441E0,-1.457010132E1,-9.291627960E0,1.915763928E1
6.345439417E0,3.215613098E0,-1.046159500E1,-1.018691620E1,1.495186942E1
6.355478417E0,-8.919950867E-1,-6.602769470E0,-1.356569000E1,1.511357553E1
6.365518417E0,-3.647165680E0,-3.248544617E0,-1.657218796E1,1.727692893E1
6.375557417E0,-3.075504456E0,-9.008267212E-1,-1.239183105E1,1.279951926E1
6.385596417E0,-5.171745300E-1,1.597178650E-1,-5.379662933E0,5.406824629E0
6.395635417E0,6.782395935E-1,8.375083923E-1,-1.087189178E0,1.530819899E0
6.405674417E0,1.191522217E0,1.148262177E0,-3.535647583E-1,1.692110888E0
6.415713417E0,1.772913208E0,1.071471863E0,-6.996450806E-1,2.186498670E0
6.425752417E0,1.888173523E0,7.975415039E-1,-2.321672058E-1,2.062807144E0
6.435792417E0,1.511706390E0,6.474037170E-1,1.290316772E-1,1.649556594E0
6.445831417E0,1.119671631E0,9.204359436E-1,-7.204518127E-1,1.618615983E0
6.455870417E0,1.053658905E0,1.900447998E0,-3.803440704E0,4.380417888E0
6.465909417E0,7.183561707E-1,2.644400940E0,-4.326453094E0,5.121238942E0
6.475948417E0,5.179229736E-2,2.458337860E0,-2.039059753E0,3.194350036E0
6.485987417E0,8.292755127E-2,2.207908630E0,-3.041674805E-1,2.230303871E0
6.496026417E0,2.713856506E-1,2.221979370E0,3.125500488E-1,2.260205749E0
6.506066417E0,2.730322266E-1,2.766097870E0,5.453160095E-1,2.832527771E0
6.516105417E0,5.140310669E-1,4.058360596E0,5.071453857E-1,4.122100812E0
6.526144417E0,7.408094788E-1,5.190157013E0,1.962419128E-1,5.246431110E0
6.536183417E0,6.529421997E-1,5.472919006E0,-6.511459351E-2,5.512115372E0
6.546222417E0,4.858895874E-1,5.262456665E0,-1.221459961E-1,5.286251837E0
6.556261417E0,2.487826538E-1,4.822521515E0,-9.056167603E-2,4.829783431E0
6.566300417E0,3.667373657E-2,4.082759857E0,8.008346558E-2,4.083709879E0
6.576340417E0,-1.386117554E-1,3.231330414E0,2.673440552E-1,3.245332388E0
6.586379417E0,-3.528163147E-1,2.344125366E0,4.323010254E-1,2.409623884E0
6.596418417E0,-5.249583435E-1,1.583706665E0,5.364843750E-1,1.752576260E0
6.606457417E0,-6.548881531E-1,1.043330383E0,5.619314575E-1,1.353951160E0
6.616496417E0,-7.659571838E-1,6.251000977E-1,4.697232056E-1,1.094568604E0
6.626535417E0,-9.416917419E-1,2.492317200E-1,1.839674377E-1,9.913343559E-1
6.636574417E0,-1.049317932E0,-8.307723999E-2,-1.193019104E-1,1.059340784E0
6.646614417E0,-9.319619751E-1,-2.797682190E-1,-1.794767761E-1,9.894621228E-1
6.656653417E0,-6.870712280E-1,-3.074606323E-1,-3.143463135E-3,7.527342122E-1
6.666692417E0,-4.053570557E-1,-2.740800476E-1,2.519261169E-1,5.503644097E-1
6.676731417E0,-1.236428833E-1,-1.990859985E-1,4.656816101E-1,5.213273054E-1
6.686770417E0,6.930587769E-2,-1.480421448E-1,5.539979553E-1,5.776101763E-1
6.696809417E0,2.276765442E-1,-1.442999268E-1,5.309458923E-1,5.954516086E-1
6.706848417E0,2.683918762E-1,-1.591191101E-1,4.278103638E-1,5.295042944E-1
6.716888417E0,2.556683350E-1,-1.342707825E-1,3.562591553E-1,4.586017076E-1
6.726927417E0,2.637515259E-1,-1.453477478E-1,3.748205566E-1,4.808131496E-1
6.736966417E0,2.600093079E-1,-1.615141296E-1,4.998106384E-1,5.860907170E-1
6.747005417E0,1.101858673E0,-3.785627747E-1,7.214996338E-2,1.167307983E0
6.757044417E0,1.052416489E1,-1.807491302E0,-5.674998779E0,1.209258792E1
6.767083417E0,2.245240997E1,-5.151387634E0,-2.829565887E0,2.320891965E1
6.777123417E0,5.604210983E1,-1.388722137E1,-3.420492050E1,6.710849111E1
6.787162417E0,9.114501297E1,-3.286385925E1,-5.690356842E1,1.123630844E2
6.797201417E0,7.434769318E1,-4.220398636E1,-1.380953293E1,8.659941769E1
6.807240417E0,3.978756134E1,-3.664290070E1,1.295930099E1,5.562100045E1
6.817279417E0,2.281809952E1,-3.032229446E1,2.285686890E1,4.430060567E1
6.827318417E0,2.343526611E1,-2.172447372E1,2.238026001E1,3.901333739E1
6.837357417E0,1.963047821E1,-1.522109756E1,1.445499069E1,2.873994158E1
6.847397417E0,1.362796051E1,-1.171179520E1,8.287965088E0,1.978832534E1
6.857436417E0,9.314230957E0,-9.384434967E0,5.048551483E0,1.415310531E1
6.867475417E0,6.265071716E0,-7.833959198E0,3.584595795E0,1.065229399E1
6.877514417E0,3.515738983E0,-6.758745117E0,3.558699646E0,8.408650268E0
6.887553417E0,1.749861145E0,-5.590274963E0,2.875520325E0,6.525473571E0
6.897592417E0,-2.118095398E-1,-4.404141541E0,-2.401007080E-1,4.415764299E0
6.907631417E0,-2.216740265E0,-3.430566101E0,-3.480562134E0,5.366286793E0
6.917671417E0,-2.254761200E0,-2.793640594E0,-7.089856567E0,7.946976909E0
6.927710417E0,-2.633623352E0,-1.529519348E0,-1.495525040E1,1.526220547E1
6.937749417E0,-1.880539398E0,-7.364685059E-1,-1.151405640E1,1.168983785E1
6.947788417E0,-8.276289368E-1,-6.978488159E-1,-6.155499573E0,6.249971009E0
6.957827417E0,6.800358582E-1,-7.961943054E-1,-2.352358246E0,2.574871542E0
6.967866417E0,2.248174896E0,-9.053173828E-1,-4.969665527E-2,2.424120394E0
6.977905417E0,3.182831268E0,-1.101559296E0,3.858975220E-1,3.390098031E0
6.987945417E0,3.983067169E0,-1.401685181E0,4.525090027E-1,4.246682213E0
6.997984417E0,4.625082092E0,-1.840422821E0,5.477110291E-1,5.007846632E0
7.008023417E0,5.147944794E0,-2.464175720E0,6.477030945E-1,5.743954812E0
7.018062417E0,5.612129517E0,-3.162772980E0,6.686595154E-1,6.476591401E0
7.028101417E0,6.041137390E0,-3.781286774E0,7.571255493E-1,7.167057257E0
7.038140417E0,6.582262115E0,-4.301155701E0,9.515711975E-1,7.920328444E0
7.048180417E0,7.376959534E0,-4.929548950E0,1.104852448E0,8.940955416E0
7.058219417E0,8.528215485E0,-5.673651581E0,1.187330933E0,1.031166991E1
7.068258417E0,1.056532928E1,-6.583459625E0,1.000220032E0,1.248873747E1
7.078297417E0,1.332124832E1,-7.783364410E0,9.526190186E-1,1.545781037E1
7.088336417E0,1.424153458E1,-8.987161102E0,1.767674103E0,1.693266203E1
7.098375417E0,1.407044037E1,-9.972861328E0,2.170336761E0,1.738233635E1
7.108414417E0,1.293624893E1,-1.061996567E1,2.077230377E0,1.686550009E1
7.118454417E0,1.153905441E1,-1.083536774E1,2.035167847E0,1.595922551E1
7.128493417E0,1.102547241E1,-1.065454376E1,1.090332642E0,1.537104974E1
7.138532417E0,1.242266693E1,-1.047506699E1,-7.091802521E0,1.772973054E1
7.148571417E0,1.369696701E1,-9.502838745E0,-1.237162308E1,2.075976655E1
7.158610417E0,1.249287094E1,-8.334817657E0,-8.802295532E0,1.740751034E1
7.168649417E0,1.003558090E1,-7.480843506E0,-7.252867584E0,1.446651277E1
7.178688417E0,7.548652496E0,-6.540199585E0,-5.873336334E0,1.158673573E1
7.188728417E0,5.795647888E0,-5.477858734E0,-4.628524933E0,9.220613527E0
7.198767417E0,4.870721283E0,-4.233197021E0,-4.019740906E0,7.602775795E0
7.208806417E0,4.416865082E0,-2.845732269E0,-4.193230133E0,6.722355855E0
7.218845417E0,4.345613251E0,-1.315015411E0,-4.471052399E0,6.372121280E0
7.228884417E0,4.587809601E0,1.303788757E-1,-3.947441254E0,6.053700359E0
7.238923417E0,4.866080933E0,1.146765289E0,-2.533631287E0,5.604739224E0
7.248962417E0,4.966372375E0,1.736239471E0,-1.133592682E0,5.381859757E0
7.259002417E0,5.116959229E0,2.078427887E0,-4.230203247E-1,5.539140766E0
7.269041417E0,5.467230835E0,2.150727539E0,1.185534668E-1,5.876248538E0
7.279080417E0,6.342610474E0,2.137854309E0,2.047741699E-1,6.696346849E0
7.289119417E0,7.391928406E0,1.886227570E0,-9.894424438E-2,7.629433135E0
7.299158417E0,7.958500214E0,6.505471802E-1,1.806742859E-1,7.987088361E0
7.309197417E0,8.206235046E0,-7.411088562E-1,1.141226807E0,8.318289163E0
7.319237417E0,8.462951202E0,-1.642384644E0,2.790497131E0,9.061227544E0
7.329276417E0,9.274563446E0,-2.348466339E0,2.100881195E0,9.795229607E0
7.339315417E0,9.971963196E0,-4.249962158E0,6.806346130E-1,1.086119201E1
7.349354417E0,1.000160156E1,-6.363117828E0,1.545835419E0,1.195453510E1
7.359393417E0,1.214664093E1,-7.955805817E0,2.655926971E0,1.476108669E1
7.369432417E0,1.844973358E1,-1.026580215E1,3.767814789E0,2.144704622E1
7.379471417E0,3.089829666E1,-1.419138885E1,4.262086945E0,3.426755958E1
7.389511417E0,4.543501740E1,-1.814122513E1,6.094875641E0,4.930103816E1
7.399550417E0,5.043027969E1,-2.013088760E1,7.546257477E0,5.482163576E1
7.409589417E0,4.661007385E1,-2.178749268E1,-1.025367737E-1,5.145098964E1
7.419628417E0,3.826747238E1,-2.168555466E1,-1.517843628E1,4.653007255E1
7.429667417E0,3.104588974E1,-1.859163849E1,-7.620203705E0,3.698058674E1
7.439706417E0,2.610900604E1,-1.526046570E1,-8.331674194E-1,3.025320112E1
7.449745417E0,1.952958801E1,-1.242745697E1,-1.259780273E0,2.318261290E1
7.459785417E0,1.282128799E1,-1.015772690E1,-3.508404236E0,1.672942742E1
7.469824417E0,7.870932312E0,-7.919431458E0,-4.958738251E0,1.221712139E1
7.479863417E0,4.028123474E0,-5.516927490E0,-5.475164337E0,8.754409870E0
7.489902417E0,1.099463654E0,-3.047961731E0,-6.754404144E0,7.491386146E0
7.499941417E0,-1.479373627E0,-8.445437622E-1,-8.638685760E0,8.805037885E0
7.509980417E0,-2.345771942E0,4.742138672E-1,-8.899742889E0,9.215907351E0
7.520019417E0,-2.242187347E0,8.249345398E-1,-6.949747925E0,7.348939877E0
7.530059417E0,-1.678908691E0,9.063652039E-1,-3.740272064E0,4.198793564E0
7.540098417E0,-1.327439575E0,1.123264160E0,-1.637145538E0,2.388318177E0
7.550137417E0,-1.213825836E0,1.336420898E0,-1.085692291E0,2.106685010E0
7.560176417E0,-1.151555328E0,1.463656311E0,-1.371298370E0,2.312753487E0
7.570215417E0,-8.737330627E-1,1.481469269E0,-1.398092651E0,2.216489053E0
7.580254417E0,-4.180805969E-1,1.348695374E0,-8.812174988E-1,1.664426290E0
7.590294417E0,-7.933502197E-2,1.200802917E0,-3.703298950E-1,1.259113150E0
7.600333417E0,5.568420410E-2,1.220861206E0,-4.855902100E-1,1.315066792E0
7.610372417E0,4.520599365E-2,1.502575378E0,-1.648222504E0,2.230787702E0
7.620411417E0,-2.290237427E-2,2.112856293E0,-3.450474701E0,4.046042745E0
7.630450417E0,-1.085243225E-1,2.508184204E0,-3.453618164E0,4.269688976E0
7.640489417E0,-2.010319519E-1,2.264191589E0,-1.985770569E0,3.018321082E0
7.650528417E0,-3.462300110E-1,1.603166199E0,-6.550378418E-1,1.766095030E0
7.660568417E0,-1.511856079E-1,1.113085327E0,2.912942505E-1,1.160460415E0
7.670607417E0,4.745132446E-2,9.063652039E-1,6.827302551E-1,1.135724488E0
7.680646417E0,1.272354126E-2,7.813751221E-1,6.852749634E-1,1.039379981E0
7.690685417E0,-2.380050659E-2,7.717950439E-1,6.227050781E-1,9.919655580E-1
7.700724417E0,-1.182540894E-2,8.044271851E-1,5.575904846E-1,9.788514110E-1
7.710763417E0,2.155517578E-2,8.020321655E-1,4.950205994E-1,9.427436629E-1
7.720802417E0,5.239105225E-3,8.033793640E-1,4.535568237E-1,9.225831361E-1
7.730842417E0,8.023315430E-2,8.497828674E-1,3.529660034E-1,9.236629691E-1
7.740881417E0,2.079176331E-1,9.454339600E-1,2.607577515E-1,1.002531655E0
7.750920417E0,3.112028503E-1,1.035995636E0,2.463876343E-1,1.109432755E0
7.760959417E0,4.240681458E-1,1.099763031E0,2.374063110E-1,1.202361956E0
7.770998417E0,5.292993164E-1,1.212927704E0,2.296224976E-1,1.343159660E0
7.781037417E0,6.613247681E-1,1.290316772E0,1.992356873E-1,1.463544561E0
7.791076417E0,7.152127075E-1,1.242566071E0,1.335223389E-1,1.439905508E0
7.801116417E0,7.253915405E-1,1.021924896E0,-7.933502197E-2,1.255713911E0
7.811155417E0,7.562274170E-1,6.924600220E-1,-6.962022400E-1,1.239386278E0
7.821194417E0,8.577163696E-1,3.098556519E-1,-1.229094086E0,1.530477104E0
7.831233417E0,5.809419250E-1,5.343887329E-2,-6.384223938E-1,8.648308426E-1
7.841272417E0,2.754272461E-1,-1.360670471E-1,-4.266128540E-2,3.101522118E-1
7.851311417E0,1.814227295E-1,-3.870950317E-1,3.308120728E-2,4.287786569E-1
7.861351417E0,8.605604553E-1,-6.634204102E-1,-1.046324158E-1,1.091622133E0
7.871390417E0,4.515210571E0,-1.715582428E0,1.395098877E-1,4.832164378E0
7.881429417E0,1.382689682E1,-3.708538055E0,1.755699005E0,1.442285718E1
7.891468417E0,3.450145386E1,-8.497080231E0,2.748135223E0,3.563850359E1
7.901507417E0,8.322303680E1,-2.479743347E1,-3.729015472E1,9.450683680E1
7.911546417E0,8.486706802E1,-4.469974640E1,-3.391317719E1,1.017378501E2
7.921586417E0,4.885390778E1,-4.395893692E1,-3.134182434E0,6.579449475E1
7.931628792E0,2.806843140E1,-3.626388885E1,1.233629654E1,4.748779515E1
7.941667792E0,1.870869507E1,-3.157503937E1,1.366912491E1,3.916431230E1
7.951706792E0,1.747286499E1,-2.287363403E1,1.453702011E1,3.224638117E1
7.961745792E0,1.339714050E1,-1.478685059E1,1.236234238E1,2.347257619E1
7.971784792E0,7.773335266E0,-1.091125992E1,8.280480652E0,1.574949821E1
7.981823792E0,5.673202515E0,-8.699160004E0,4.256997528E0,1.122419884E1
7.991863792E0,3.975732422E0,-6.693031769E0,8.327183533E-1,7.829210842E0
8.001902792E0,1.710193634E0,-4.402794342E0,-2.691403198E0,5.436268156E0
8.011941792E0,-2.424957275E-1,-2.881358185E0,-5.420977020E0,6.143941815E0
8.021980792E0,-1.850451965E0,-2.500101013E0,-7.762407990E0,8.362395312E0
8.032019792E0,-2.942281494E0,-2.785258026E0,-9.891879730E0,1.068943250E1
8.042058792E0,-2.412233734E0,-3.258124695E0,-9.481582947E0,1.031187002E1
8.052097792E0,-1.249451752E0,-3.479813690E0,-6.752757568E0,7.698699096E0
8.062137792E0,1.025367737E-1,-3.389252014E0,-3.421135712E0,4.816815604E0
8.072176792E0,1.896705780E0,-3.075055389E0,-1.144220581E0,3.789815194E0
8.082215792E0,3.293301544E0,-2.425855408E0,-4.340972900E-2,4.090537119E0
8.092254792E0,3.709735565E0,-1.702559509E0,2.938389587E-1,4.092332853E0
8.102293792E0,3.718267822E0,-1.254840546E0,1.881587219E-1,3.928809501E0
8.112332792E0,3.618724823E0,-1.206790466E0,-1.628613281E-1,3.818119483E0
8.122372792E0,3.661086731E0,-1.440304871E0,-4.845423889E-1,3.963939391E0
8.132411792E0,4.032015381E0,-1.923200684E0,-6.081852722E-1,4.508407504E0
8.142450792E0,5.030888214E0,-2.478396149E0,-4.731660461E-1,5.628158651E0
8.152489792E0,6.509064331E0,-3.176694031E0,-2.318678284E-1,7.246589965E0
8.162528792E0,8.451275482E0,-4.065545654E0,1.504371643E-1,9.379517583E0
8.172567792E0,1.073402847E1,-5.268294525E0,6.253994751E-1,1.197352993E1
8.182606792E0,1.335911957E1,-6.866820374E0,1.037492523E0,1.505641685E1
8.192646792E0,1.839913879E1,-8.625513153E0,-1.206042023E0,2.035638285E1
8.202685792E0,2.201951019E1,-9.783505096E0,-2.318079529E0,2.420638952E1
8.212724792E0,1.985830444E1,-1.043225601E1,7.140151978E-2,2.243188175E1
8.222763792E0,1.691587326E1,-1.065184937E1,8.095166016E-1,2.000659842E1
8.232802792E0,1.321122711E1,-1.063238983E1,-4.751718750E0,1.761144703E1
8.242841792E0,1.061906754E1,-1.064571213E1,-1.512739243E1,2.132917682E1
8.252881792E0,1.080557968E1,-1.036564453E1,-1.255603958E1,1.954127091E1
8.262920792E0,1.015069153E1,-1.013242950E1,-1.020083725E1,1.759999281E1
8.272959792E0,8.119415588E0,-9.138795776E0,-7.783514099E0,1.449225964E1
8.282998792E0,5.247637482E0,-7.391179962E0,-5.851631470E0,1.078929243E1
8.293037792E0,3.071013794E0,-5.369035034E0,-5.043911133E0,7.981146687E0
8.303076792E0,1.709145813E0,-3.795207825E0,-4.965923309E0,6.479596913E0
8.313115792E0,2.384541321E-1,-2.757266235E0,-5.277275848E0,5.958944357E0
8.323155792E0,-8.452922058E-1,-2.024839325E0,-6.209387512E0,6.585665227E0
8.333194792E0,-7.738906860E-2,-1.655706940E0,-6.754553833E0,6.954951619E0
8.343233792E0,1.668430481E0,-1.613045654E0,-5.435796204E0,5.910453191E0
8.353272792E0,2.370470581E0,-1.561103668E0,-3.092119904E0,4.197306391E0
8.363311792E0,2.806513824E0,-1.416504364E0,1.746867371E-1,3.148574267E0
8.373350792E0,3.940106506E0,-9.886940002E-1,3.965403900E0,5.676828622E0
8.383390792E0,6.143973541E0,-3.080593872E-1,6.175408173E0,8.716592084E0
8.393429792E0,8.683742065E0,-1.553768921E-1,6.591393127E0,1.090311798E1
8.403468792E0,1.079839462E1,1.442999268E-1,5.078040161E0,1.193367675E1
8.413507792E0,1.250619324E1,9.954299927E-1,2.643502808E0,1.282122682E1
8.423546792E0,1.286888901E1,2.738255768E0,-4.571044464E0,1.392841687E1
8.433585792E0,1.076950470E1,6.725514221E-1,-2.798730011E0,1.114753096E1
8.443624792E0,1.148875900E1,-3.667673035E0,5.198389893E0,1.313265649E1
8.453664792E0,1.586086716E1,-6.410718842E0,5.294190674E0,1.790789987E1
8.463703792E0,2.376772476E1,-9.810449066E0,6.772366791E0,2.658974620E1
8.473742792E0,3.489393768E1,-1.366358643E1,7.463180237E0,3.820967862E1
8.483781792E0,4.285109070E1,-1.786190598E1,6.474336548E0,4.687409405E1
8.493820792E0,4.399126968E1,-2.266841080E1,5.731581116E-1,4.949158683E1
8.503859792E0,3.707864456E1,-2.620375900E1,-1.709445190E-1,4.540365724E1
8.513899792E0,2.950679031E1,-2.436513245E1,3.617078247E0,3.843687824E1
8.523938792E0,2.701103027E1,-2.261003220E1,2.530188446E0,3.531587697E1
8.533977792E0,2.444207245E1,-2.113559830E1,3.248245239E-2,3.231299237E1
8.544016792E0,1.823268494E1,-1.858190872E1,-7.737559662E0,2.715857068E1
8.554055792E0,1.323293198E1,-1.439511520E1,-1.278656021E1,2.336291832E1
8.564094792E0,1.081336349E1,-1.123458755E1,-8.035889282E0,1.754195839E1
8.574133792E0,7.985743561E0,-8.630452881E0,-3.269351349E0,1.220432200E1
8.584173792E0,4.887037354E0,-5.512137451E0,-1.907932434E0,7.609664878E0
8.594212792E0,1.894460449E0,-2.657423859E0,-3.662882996E0,4.905873398E0
8.604251792E0,-7.533833313E-1,-3.168910217E-1,-7.630532227E0,7.674179332E0
8.614290792E0,-2.744842072E0,1.152004395E0,-9.927355957E0,1.036405656E1
8.624329792E0,-3.364403687E0,1.549577637E0,-9.318871307E0,1.002804894E1
8.634368792E0,-2.964734802E0,1.280287628E0,-6.607858887E0,7.354766341E0
8.644408792E0,-1.964365082E0,8.801696777E-1,-3.442541199E0,4.060113144E0
8.654447792E0,-1.417552185E0,7.325765991E-1,-2.046244812E0,2.594848840E0
8.664486792E0,-1.107696533E0,8.150550842E-1,-1.963466949E0,2.397187698E0
8.674525792E0,-9.554631042E-1,9.867480469E-1,-2.511776733E0,2.862796502E0
8.684564792E0,-6.475534058E-1,1.067280579E0,-2.669548645E0,2.947015985E0
8.694603792E0,-2.710862732E-1,1.160686340E0,-2.393971710E0,2.674281417E0
8.704642792E0,1.166075134E-1,1.269510040E0,-2.535128174E0,2.837627162E0
8.714682792E0,5.584886169E-1,1.659898224E0,-3.666325836E0,4.063141246E0
8.724721792E0,8.674461365E-1,2.003433838E0,-4.159400482E0,4.697533642E0
8.734760792E0,9.334588623E-1,1.958676910E0,-2.909349976E0,3.629335747E0
8.744799792E0,9.650431824E-1,1.612895966E0,-1.116528168E0,2.186178604E0
8.754838792E0,8.878038025E-1,1.247805176E0,3.694317627E-1,1.575339067E0
8.764877792E0,6.982978821E-1,9.514215088E-1,1.527872772E0,1.930600432E0
8.774917792E0,5.737568665E-1,8.797206116E-1,1.940863953E0,2.206820831E0
8.784956792E0,3.465293884E-1,8.839118958E-1,1.970202942E0,2.187025946E0
8.794995792E0,9.984237671E-2,8.610095215E-1,1.928439789E0,2.114281418E0
8.805034792E0,-9.834548950E-2,8.032296753E-1,1.828747101E0,1.999791415E0
8.815073792E0,-2.173480225E-1,7.225474548E-1,1.611698456E0,1.779574921E0
8.825112792E0,-2.790197754E-1,5.123844910E-1,1.281784515E0,1.408318659E0
8.835152792E0,-2.275268555E-1,3.402424622E-1,9.568103027E-1,1.040682160E0
8.845191792E0,-4.116439819E-2,1.930984497E-1,6.821315002E-1,7.101302011E-1
8.855230792E0,2.094145203E-1,6.451583862E-2,4.806504822E-1,5.282439027E-1
8.865269792E0,4.555027771E-1,-2.215393066E-2,3.703298950E-1,5.874672823E-1
8.875308792E0,6.629713440E-1,-2.829116821E-2,3.200344849E-1,7.367180361E-1
8.885347792E0,7.671546936E-1,-8.681945801E-3,3.204835510E-1,8.314513856E-1
8.895386792E0,8.678952026E-1,-3.143463135E-2,3.438349915E-1,9.340517760E-1
8.905426792E0,9.874964905E-1,-6.706054688E-2,3.920347595E-1,1.064583340E0
8.915465792E0,1.257984009E0,-4.132905579E-1,3.141966248E-1,1.360901308E0
8.925501375E0,1.755699005E0,-9.499246216E-1,2.507286072E-1,2.011889813E0
8.935540375E0,2.577190704E0,-1.566941528E0,2.636018372E-1,3.027656455E0
8.945579375E0,3.948040009E0,-2.345023499E0,3.409909058E-1,4.604609638E0
8.955618375E0,6.462361450E0,-3.476819916E0,4.399351501E-1,7.351458031E0
8.965658375E0,1.071636520E1,-5.283263397E0,8.584648132E-1,1.197874439E1
8.975697375E0,1.873504028E1,-8.239465942E0,2.514471130E0,2.062069588E1
8.985736375E0,3.668750793E1,-1.283850220E1,4.593946838E-1,3.887173035E1
8.995775375E0,7.407915161E1,-2.508094391E1,-3.509601746E1,8.572342091E1
9.005814375E0,5.951473846E1,-4.877457275E1,-8.141285110E1,1.120223878E2
9.015853375E0,3.961811371E1,-4.814887390E1,-2.673739929E0,6.241039879E1
9.025893375E0,2.891447205E1,-3.775838104E1,3.847613846E1,6.117315803E1
9.035932375E0,2.103904907E1,-2.658756088E1,3.022170364E1,4.541906374E1
9.045971375E0,1.613210312E1,-1.579410599E1,2.177551758E1,3.136672920E1
9.056010375E0,1.088506439E1,-1.116722763E1,1.227447510E1,1.984576375E1
9.066049375E0,7.595205688E0,-8.985215149E0,7.552544403E0,1.398077851E1
9.076088375E0,6.125711517E0,-7.608827362E0,4.692142639E0,1.083673373E1
9.086127375E0,4.831353149E0,-6.388265533E0,2.748135223E0,8.467830713E0
9.096167375E0,2.675386505E0,-4.308789825E0,-2.207908630E0,5.531566074E0
9.106206375E0,-2.708767090E0,-1.267264709E0,-1.789109528E1,1.813931281E1
9.116245375E0,-2.916984100E0,-1.650617523E0,-1.507155853E1,1.543972833E1
9.126284375E0,-1.390009460E0,-2.177222443E0,-9.823322296E0,1.015726759E1
9.136323375E0,-7.026388550E-1,-2.402054901E0,-6.018235016E0,6.517877094E0
9.146362375E0,-2.544708252E-3,-2.443219299E0,-2.799029388E0,3.715359005E0
9.156402375E0,1.710642700E0,-2.062860260E0,-3.929328918E-1,2.708521212E0
9.166441375E0,2.713257751E0,-1.508263550E0,7.592211914E-1,3.195785252E0
9.176480375E0,2.962489471E0,-1.024619293E0,1.086590424E0,3.317659915E0
9.186519375E0,3.169209595E0,-9.372010803E-1,9.092092896E-1,3.427666386E0
9.196558375E0,3.067421265E0,-1.097667389E0,3.164419556E-1,3.273237300E0
9.206597375E0,2.903063049E0,-1.056053925E0,-5.912704468E-2,3.089744483E0
9.216636375E0,3.452270966E0,-8.756790161E-1,-5.837860107E-3,3.561603942E0
9.226676375E0,4.641398163E0,-1.136287079E0,3.113525391E-2,4.778566169E0
9.236715375E0,5.985602875E0,-1.801952820E0,1.197509766E-3,6.250958100E0
9.246754375E0,7.863747253E0,-2.751578064E0,1.089733887E-1,8.331961228E0
9.256793375E0,1.033346146E1,-3.972888336E0,2.240840149E-1,1.107314233E1
9.266832375E0,1.263088394E1,-5.525609436E0,1.718426514E-1,1.378771622E1
9.276871375E0,1.607147919E1,-7.439978485E0,-1.984722748E0,1.782091040E1
9.286911375E0,1.809961166E1,-9.166039124E0,-3.522025909E0,2.059167021E1
9.296950375E0,1.633807480E1,-1.011282028E1,-2.097588043E0,1.932877900E1
9.306989375E0,1.426084442E1,-1.093176727E1,-6.971003723E-1,1.798224592E1
9.317028375E0,1.288071442E1,-1.180924255E1,-1.811233521E-1,1.747580668E1
9.327067375E0,1.267758682E1,-1.236383926E1,-2.928061066E0,1.794879580E1
9.337106375E0,1.288520508E1,-1.214289871E1,-6.979985046E0,1.903151834E1
9.347146375E0,1.149848877E1,-1.155357422E1,-6.621929626E0,1.759404084E1
9.357185375E0,9.382788391E0,-1.093461136E1,-6.526577911E0,1.581766932E1
9.367224375E0,7.510182495E0,-9.968520355E0,-6.195167084E0,1.393392746E1
9.377263375E0,5.786067810E0,-8.687334595E0,-6.300697632E0,1.219209390E1
9.387302375E0,4.497547302E0,-7.263944550E0,-6.106401672E0,1.050147435E1
9.397341375E0,3.710783386E0,-5.817652130E0,-5.232668610E0,8.660012149E0
9.407380375E0,3.286415863E0,-4.425547028E0,-4.331991577E0,7.010859201E0
9.417420375E0,3.265459442E0,-3.273542633E0,-3.763174438E0,5.961609564E0
9.427459375E0,3.375480652E0,-2.362088013E0,-3.597469025E0,5.469470979E0
9.437498375E0,3.567980347E0,-1.683399353E0,-4.040397949E0,5.647046372E0
9.447537375E0,3.621419220E0,-1.269360352E0,-4.883444824E0,6.210795941E0
9.457576375E0,3.756737823E0,-1.144519958E0,-5.200934601E0,6.517110229E0
9.467615375E0,4.002826080E0,-1.255289612E0,-4.416565704E0,6.091339858E0
9.477655375E0,4.493805084E0,-1.244661713E0,-2.968027954E0,5.527445780E0
9.487694375E0,5.482349396E0,-1.116228790E0,1.992356873E-1,5.598376235E0
9.497733375E0,6.717880096E0,-1.080153809E0,4.036655731E0,7.911462237E0
9.507772375E0,8.085585938E0,-1.149010620E0,6.763535156E0,1.060388293E1
9.517811375E0,8.882378998E0,-1.333876190E0,7.038213959E0,1.141106209E1
9.527850375E0,1.008123596E1,-1.077160034E0,5.710325317E0,1.163612511E1
9.537889375E0,1.239377701E1,-3.818559265E-1,4.288581848E0,1.312034515E1
9.547929375E0,1.366523300E1,1.003962250E0,-3.083737335E0,1.404478441E1
9.557968375E0,1.170101761E1,-9.105564880E-1,-2.943029938E0,1.209976658E1
9.568007375E0,1.203617065E1,-4.248914337E0,5.173691254E0,1.377279050E1
9.578046375E0,1.478430588E1,-6.710695038E0,5.283562775E0,1.707410799E1
9.588085375E0,2.011292496E1,-9.104966125E0,5.839356995E0,2.283699298E1
9.598124375E0,2.775213913E1,-1.199725159E1,7.042854309E0,3.104379276E1
9.608164375E0,3.571393250E1,-1.553020477E1,7.396718445E0,3.964068211E1
9.618203375E0,3.978202286E1,-1.880254990E1,5.847140808E0,4.438844761E1
9.628242375E0,4.082999359E1,-2.297138077E1,7.126679993E-1,4.685382169E1
9.638281375E0,3.723970963E1,-2.686628128E1,-1.049766998E0,4.593141685E1
9.648320375E0,2.981739441E1,-2.477662674E1,2.127675476E0,3.882634730E1
9.658359375E0,2.425556030E1,-2.241199402E1,-3.454815674E-1,3.302648996E1
9.668399375E0,1.700224365E1,-2.059716797E1,-1.016401382E1,2.857668271E1
9.678438375E0,1.306737625E1,-1.774634628E1,-1.140418488E1,2.481420080E1
9.688477375E0,1.142469223E1,-1.425695251E1,-6.052364044E0,1.924617879E1
9.698516375E0,8.663534088E0,-1.102367615E1,-3.192261658E0,1.437945733E1
9.708555375E0,5.392985229E0,-7.797285461E0,-2.890040131E0,9.911320911E0
9.718594375E0,1.727407837E0,-4.753964081E0,-5.281317444E0,7.312757774E0
9.728633375E0,-1.479523315E0,-1.833088074E0,-9.444310455E0,9.733663293E0
9.738673375E0,-3.137026520E0,2.897973633E-1,-1.148022675E1,1.190464296E1
9.748712375E0,-3.621119843E0,1.139729919E0,-9.375154266E0,1.011459395E1
9.758751375E0,-3.621568909E0,1.355581055E0,-6.045478363E0,7.176431564E0
9.768790375E0,-3.508703613E0,1.478026428E0,-3.136876831E0,4.933108495E0
9.778829375E0,-3.021616516E0,1.662592621E0,-1.797162781E0,3.888981185E0
9.788868375E0,-2.528691559E0,1.657054138E0,-1.792672119E0,3.514794837E0
9.798908375E0,-1.921105042E0,1.587448883E0,-2.381397858E0,3.446983361E0
9.808947375E0,-1.102158051E0,1.466500397E0,-2.674188995E0,3.242940420E0
9.818986375E0,-4.755610657E-1,1.250798950E0,-2.068997498E0,2.464022521E0
9.829025375E0,-1.739382935E-1,9.840536499E-1,-1.236129456E0,1.589538344E0
9.839064375E0,-5.613327026E-2,8.352630615E-1,-1.144519958E0,1.418006087E0
9.849103375E0,4.745132446E-2,1.110241241E0,-2.620001678E0,2.845926218E0
9.859143375E0,3.460803223E-1,1.784738617E0,-4.460723877E0,4.816961805E0
9.869182375E0,4.099974060E-1,1.705403595E0,-2.735711060E0,3.249709879E0
9.879221375E0,2.875520325E-1,1.159039764E0,-8.156538391E-1,1.446150245E0
9.889260375E0,6.436614990E-2,5.945635986E-1,3.267704773E-1,6.814894122E-1
9.899299375E0,-1.152603149E-2,3.695814514E-1,7.373666382E-1,8.248835419E-1
9.909338375E0,-5.583389282E-2,3.156935120E-1,8.327183533E-1,8.923002146E-1
9.919377375E0,-1.384620667E-1,2.951861572E-1,9.036708069E-1,9.606911775E-1
9.929418000E0,-1.025367737E-1,3.242257690E-1,9.596543884E-1,1.018122136E0
9.939457000E0,-1.601669312E-2,3.950285339E-1,9.683363342E-1,1.045934670E0
9.949496000E0,8.981323242E-2,4.719685364E-1,9.577084351E-1,1.071459828E0
9.959535000E0,2.438429260E-1,5.638774109E-1,9.186396790E-1,1.105131651E0
9.969574000E0,4.498146057E-1,6.548881531E-1,9.012757874E-1,1.201461492E0
9.979613000E0,7.006929016E-1,7.247927856E-1,8.000862122E-1,1.287024892E0
9.989653000E0,8.580157471E-1,6.288423157E-1,6.038442993E-1,1.223217731E0
9.999692000E0,8.598120117E-1,4.990621948E-1,3.870950317E-1,1.066856285E0
1.000973100E1,7.858657837E-1,3.623963928E-1,2.281256104E-1,8.949622727E-1
1.001977000E1,6.331832886E-1,9.684860229E-2,5.658233643E-2,6.430414368E-1
1.002980900E1,4.520599365E-1,-1.529818726E-1,-1.002914429E-1,4.876679332E-1
1.003984800E1,2.541714478E-1,-4.375401306E-1,-2.204914856E-1,5.519610366E-1
1.004988800E1,2.932402039E-1,-5.999523926E-1,-3.722758484E-1,7.645403834E-1
1.005992700E1,9.105564880E-1,-9.497749329E-1,-5.114863586E-1,1.411667042E0
1.006996600E1,2.408192139E0,-2.078278198E0,-4.821473694E-1,3.217311880E0
1.008000500E1,5.611830139E0,-4.296215973E0,-6.090834045E-1,7.093736095E0
1.009004400E1,1.261561569E1,-8.217012634E0,-1.635498962E0,1.514423695E1
1.010008300E1,2.771621384E1,-1.479538284E1,-1.625918884E0,3.146006159E1
1.011012300E1,5.170682510E1,-2.356235184E1,-9.195527802E0,5.756160107E1
1.012016200E1,6.342969727E1,-3.470562927E1,-2.598940475E1,7.683265164E1
1.013020100E1,4.464061935E1,-4.505256271E1,-2.966605911E1,7.001852160E1
1.014024000E1,2.816423218E1,-4.575639908E1,-7.083120575E0,5.419448891E1
1.015027900E1,1.488055573E1,-4.125016983E1,9.612710266E0,4.489333635E1
1.016031800E1,1.057146652E1,-3.007830185E1,1.457114914E1,3.505393749E1
1.017035800E1,1.024783951E1,-1.995380585E1,1.396865204E1,2.642528755E1
1.018039700E1,7.529941406E0,-1.427566360E1,9.865534515E0,1.891621950E1
1.019043600E1,6.095175018E0,-1.071397018E1,6.336622925E0,1.385976572E1
1.020047500E1,5.662873993E0,-8.340356140E0,3.355272675E0,1.062485469E1
1.021051400E1,4.398004303E0,-6.407725067E0,3.106040955E-1,7.778036853E0
1.022055300E1,2.169139252E0,-4.256698151E0,-3.994293823E0,6.227280898E0
1.023059200E1,7.780819702E-1,-2.421813812E0,-6.717730408E0,7.183209277E0
1.024063200E1,4.903802490E-1,-1.416504364E0,-6.602919159E0,6.770930425E0
1.025067100E1,9.976753235E-1,-9.301657104E-1,-5.274731140E0,5.448243102E0
1.026071000E1,2.017354889E0,-1.019230499E0,-3.819906464E0,4.438494897E0
1.027074900E1,3.191363525E0,-1.532962189E0,-2.559826813E0,4.368922926E0
1.028078800E1,4.116739197E0,-1.848356323E0,-1.576371918E0,4.780053466E0
1.029082700E1,4.777016144E0,-1.884131927E0,-1.060245209E0,5.243467961E0
1.030086700E1,4.709356842E0,-1.885179749E0,-8.499325562E-1,5.143377285E0
1.031090600E1,4.589306488E0,-1.976040802E0,-6.686595154E-1,5.041188039E0
1.032094500E1,4.538412323E0,-2.037263489E0,-5.638774109E-1,5.006554371E0
1.033098400E1,4.825814667E0,-2.116448822E0,-5.349874878E-1,5.296607823E0
1.034102300E1,5.472919006E0,-2.411335602E0,-5.222639465E-1,6.003344190E0
1.035106200E1,6.471791840E0,-2.816093903E0,-6.020480347E-1,7.083568050E0
1.036110200E1,8.097561035E0,-3.306773529E0,-1.019978943E0,8.805998123E0
1.037114100E1,1.039438477E1,-4.013753357E0,-1.753753052E0,1.127958778E1
1.038118000E1,1.238584351E1,-5.137017517E0,-1.663191376E0,1.351163476E1
1.039121900E1,1.368933289E1,-6.472091217E0,-8.162525940E-1,1.516417053E1
1.040125800E1,1.493294678E1,-7.815996552E0,-6.795867920E-2,1.685489009E1
1.041129700E1,1.596594864E1,-9.111253052E0,4.161346436E-1,1.838748531E1
1.042133700E1,1.609677658E1,-1.023212219E1,4.593946838E-1,1.907914003E1
1.043137600E1,1.390353745E1,-1.070453979E1,-6.083349609E-1,1.755749404E1
1.044141500E1,9.398954773E0,-1.019619690E1,-4.596192169E0,1.460916714E1
1.045145400E1,6.541546783E0,-9.094787292E0,-1.024245071E1,1.517941985E1
1.046149300E1,5.693560181E0,-8.255033569E0,-1.043629761E1,1.447337260E1
1.047153200E1,5.457052002E0,-7.886350250E0,-7.526947632E0,1.219134437E1
1.048157200E1,5.299130402E0,-7.625742188E0,-4.223467255E0,1.020149021E1
1.049161100E1,4.719984741E0,-7.323221283E0,-1.822609863E0,8.901108506E0
1.050165000E1,3.719914398E0,-7.121440887E0,-6.065386963E-1,8.057330366E0
1.051168900E1,2.627635803E0,-7.071295166E0,-9.234297180E-1,7.600026821E0
1.052172800E1,2.021396484E0,-7.066804504E0,-2.236199799E0,7.682861393E0
1.053176700E1,2.640059967E0,-6.867119751E0,-3.540737000E0,8.164806722E0
1.054180600E1,3.662733307E0,-6.358776855E0,-4.308041382E0,8.509340687E0
1.055184600E1,4.184847565E0,-5.775589600E0,-4.658163300E0,8.518736390E0
1.056188500E1,4.068689117E0,-5.208119659E0,-4.118535461E0,7.787238013E0
1.057192400E1,3.697461090E0,-4.618944855E0,-2.442470856E0,6.400901028E0
1.058196300E1,3.597319336E0,-3.817062378E0,-5.480104065E-1,5.273612330E0
1.059200200E1,4.247567139E0,-2.929258575E0,1.505718842E0,5.374902011E0
1.060204100E1,5.597310333E0,-2.282154236E0,3.935915222E0,7.213150460E0
1.061208100E1,6.553072815E0,-2.040556641E0,5.068759460E0,8.532230493E0
1.062212000E1,7.290140076E0,-1.744472351E0,4.222120056E0,8.603233338E0
1.063215900E1,7.941435699E0,-1.690285034E0,2.908002777E0,8.624380825E0
1.064219800E1,7.355554047E0,-2.375859375E0,-1.366658020E-1,7.730948237E0
1.065223700E1,6.307733002E0,-4.711302795E0,4.712200928E-1,7.887072843E0
1.066227600E1,7.845634918E0,-6.443350983E0,2.635419617E0,1.048886055E1
1.067231600E1,1.235949829E1,-8.142767029E0,3.183280334E0,1.513919174E1
1.068235500E1,1.920626038E1,-1.106319397E1,4.067641296E0,2.253487085E1
1.069239400E1,2.797427719E1,-1.518157974E1,4.692142639E0,3.217229787E1
1.070243300E1,3.792229019E1,-2.088876160E1,4.021537170E0,4.348118232E1
1.071247200E1,4.335763733E1,-2.732387970E1,1.598226471E0,5.127410111E1
1.072251100E1,3.838273270E1,-3.025643143E1,2.684367828E0,4.894784615E1
1.073255100E1,2.831511841E1,-3.228261795E1,-1.020787262E1,4.413744460E1
1.074259000E1,1.807236832E1,-3.191917374E1,-2.642260391E1,4.520617376E1
1.075262900E1,1.824061844E1,-2.521760971E1,-5.080285492E0,3.153501706E1
1.076266800E1,1.633597916E1,-1.911629745E1,4.679718475E0,2.557727132E1
1.077270700E1,1.223211319E1,-1.447175583E1,5.684129791E0,1.978296341E1
1.078274600E1,9.301657104E0,-1.064122147E1,1.954635315E0,1.426804186E1
1.079278600E1,6.738836517E0,-6.807543640E0,-4.875062256E0,1.074806029E1
1.080282500E1,4.657714233E0,-3.623814240E0,-6.706503754E0,8.933281823E0
1.081286400E1,3.062182159E0,-1.244512024E0,-7.523355103E0,8.217459568E0
1.082290300E1,1.496138763E0,4.354444885E-1,-8.519084473E0,8.660418197E0
1.083294200E1,1.649569702E-1,1.252295837E0,-7.711962891E0,7.814718632E0
1.084298100E1,-6.625222778E-1,1.511257324E0,-6.234086151E0,6.448772333E0
1.085302100E1,-9.294172668E-1,1.554966431E0,-4.842579803E0,5.170330377E0
1.086306000E1,-1.000519409E0,1.419049072E0,-3.554658051E0,3.956050204E0
1.087309900E1,-9.213340759E-1,1.303190002E0,-2.697839813E0,3.134565412E0
1.088313800E1,-7.593708801E-1,1.402433624E0,-2.269730072E0,2.774011320E0
1.089317700E1,-5.201683044E-1,1.540596313E0,-2.040556641E0,2.609192111E0
1.090321600E1,-1.745370483E-1,1.716031494E0,-2.258353729E0,2.841722864E0
1.091325600E1,9.325607300E-2,1.868863678E0,-2.254162445E0,2.929606880E0
1.092329500E1,1.188528442E-1,1.674118652E0,-7.372169495E-1,1.833108860E0
1.093333404E1,-3.921844482E-2,1.435065765E0,2.851570129E-1,1.463648305E0
1.094337304E1,-3.951782227E-2,1.439107361E0,6.469546509E-1,1.578335191E0
1.095341204E1,2.874023438E-2,1.600022736E0,7.345225525E-1,1.760801561E0
1.096345104E1,2.011816406E-1,1.855840759E0,6.668632507E-1,1.982252651E0
1.097349104E1,3.872447205E-1,2.190544739E0,5.885760498E-1,2.301057690E0
1.098353004E1,5.161267090E-1,2.324665833E0,5.321434021E-1,2.440007093E0
1.099356904E1,5.143304443E-1,2.165247345E0,5.137316895E-1,2.284021042E0
1.100360804E1,4.348457336E-1,1.869911499E0,4.559518433E-1,1.973208532E0
1.101364704E1,3.903881836E-1,1.711241455E0,3.811074829E-1,1.796104998E0
1.102368604E1,3.975732422E-1,1.666484528E0,2.878514099E-1,1.737266128E0
1.103372604E1,4.327500916E-1,1.567839661E0,2.390528870E-1,1.643940427E0
1.104376504E1,5.051994324E-1,1.430874481E0,2.013313293E-1,1.530739217E0
1.105380404E1,6.378236389E-1,1.230590973E0,1.681004333E-1,1.396220216E0
1.106384304E1,8.045768738E-1,1.037043457E0,6.855743408E-2,1.314345160E0
1.107388204E1,9.369017029E-1,8.397537231E-1,-7.454498291E-2,1.260368228E0
1.108392104E1,1.009201355E0,5.959107971E-1,-2.664459229E-1,1.201911179E0
1.109396104E1,1.196911011E0,3.489244080E-1,-6.144721985E-1,1.389935356E0
1.110400004E1,2.368824005E0,5.972579956E-2,-3.413800964E0,4.155590375E0
1.111403904E1,4.287683716E0,-5.031037903E-1,-8.125852203E0,9.201457444E0
1.112407804E1,5.546565857E0,-1.342707825E0,-1.062475571E1,1.206037690E1
1.113411704E1,4.598138123E0,-1.488504639E0,-5.588927765E0,7.388818161E0
1.114415604E1,3.973786469E0,-1.088386688E0,8.264314270E-1,4.202208156E0
1.115419604E1,5.563480682E0,-1.875150604E0,1.699865112E0,6.112123076E0
1.116423504E1,8.519383850E0,-3.653302917E0,3.153941345E0,9.791520280E0
1.117427404E1,1.521825348E1,-8.164322205E0,6.236780548E0,1.836161288E1
1.118431304E1,2.814327576E1,-1.570234680E1,1.081111816E1,3.399246889E1
1.119435204E1,4.643149521E1,-2.519141418E1,1.177795761E1,5.412218936E1
1.120439104E1,6.101117661E1,-4.346241943E1,-3.569836487E1,8.298023155E1
1.121443104E1,4.602389282E1,-5.380815536E1,-3.907833618E1,8.087417791E1
1.122447004E1,2.309592178E1,-4.486066177E1,6.390211487E-1,5.046096438E1
1.123450904E1,1.474733276E1,-3.726291138E1,7.704628143E0,4.080894121E1
1.124454804E1,1.108938950E1,-2.469983643E1,1.546314423E1,3.117956556E1
1.125458704E1,7.183262329E0,-1.570563995E1,8.419541473E0,1.921340841E1
1.126462604E1,3.584446106E0,-1.271725433E1,1.564546509E0,1.330505984E1
1.127466604E1,3.786675568E0,-1.045770309E1,9.416917419E-1,1.116195544E1
1.128470504E1,3.551215210E0,-8.447832642E0,6.155200195E-1,9.184545209E0
1.129474404E1,2.590363312E0,-6.760840759E0,-9.729766846E-3,7.240099760E0
1.130478304E1,1.387165375E0,-5.354664917E0,-8.475375366E-1,5.595979273E0
1.131482204E1,-4.604425049E-1,-3.979774017E0,-3.855532379E0,5.560192304E0
1.132486104E1,-3.075055389E0,-2.580184479E0,-8.401129761E0,9.310869930E0
1.133490104E1,-3.358565826E0,-1.988165588E0,-7.793543243E0,8.716196596E0
1.134494004E1,-2.062710571E0,-1.827549591E0,-5.434299316E0,6.093137244E0
1.135497904E1,-6.239025879E-1,-1.782044220E0,-3.341651001E0,3.838172411E0
1.136501804E1,7.762857056E-1,-1.644779663E0,-1.483265533E0,2.346912073E0
1.137505704E1,1.895957336E0,-1.438658295E0,-2.791694641E-1,2.396315401E0
1.138509604E1,2.850821686E0,-1.084345093E0,3.164419556E-1,3.066451382E0
1.139513504E1,3.678450623E0,-7.647596741E-1,4.787045288E-1,3.787481270E0
1.140517504E1,4.608466644E0,-6.414161682E-1,3.748205566E-1,4.667962078E0
1.141521404E1,5.182672577E0,-9.274713135E-1,-2.484832764E-2,5.265065576E0
1.142525304E1,5.507646790E0,-1.529669037E0,-4.122427368E-1,5.730968905E0
1.143529204E1,6.258036346E0,-2.081271973E0,-5.520520020E-1,6.618117055E0
1.144533104E1,7.769742737E0,-2.592309265E0,-1.061742096E0,8.259313882E0
1.145537104E1,1.081815353E1,-3.215014343E0,-2.455344086E0,1.154978258E1
1.146541004E1,1.320613770E1,-4.490811310E0,-2.163600769E0,1.411561643E1
1.147544904E1,1.482636841E1,-6.491850128E0,-8.026309204E-1,1.620523171E1
1.148548804E1,1.558918213E1,-8.889713745E0,5.673202515E-1,1.795470585E1
1.149552704E1,1.586969879E1,-1.125075394E1,1.619033203E0,1.952045267E1
1.150556604E1,1.553080353E1,-1.315030380E1,2.404599609E0,2.049191176E1
1.151560604E1,1.425395874E1,-1.428434555E1,2.801125031E0,2.037312369E1
1.152564504E1,1.227208008E1,-1.469239700E1,2.991678772E0,1.937577408E1
1.153568404E1,1.003992188E1,-1.391895538E1,3.229384460E0,1.746328360E1
1.154572304E1,9.376202087E0,-1.182061890E1,3.204087067E0,1.542421378E1
1.155576204E1,9.221873016E0,-9.916728058E0,2.547851715E0,1.377954955E1
1.156580104E1,7.947423248E0,-8.720565491E0,4.495152283E-1,1.180728007E1
1.157584004E1,5.315745850E0,-8.433013458E0,-7.589966583E0,1.252918444E1
1.158588004E1,2.626438293E0,-9.017547913E0,-1.523277328E1,1.789557852E1
1.159591904E1,1.553918610E0,-9.784702606E0,-1.310898972E1,1.643169740E1
1.160595804E1,1.441652069E0,-1.011282028E1,-1.105705673E1,1.505343809E1
1.161599704E1,1.648821259E0,-9.323212280E0,-8.534203033E0,1.274651012E1
1.162603604E1,1.945055237E0,-7.010970612E0,-5.799988861E0,9.304666549E0
1.163607504E1,1.793270874E0,-4.423451385E0,-6.597081299E0,8.142740586E0
1.164611504E1,1.787283325E0,-2.696492615E0,-7.789351959E0,8.434421026E0
1.165615404E1,2.461930389E0,-1.525328064E0,-8.063282318E0,8.567627950E0
1.166619304E1,3.220103760E0,-6.860234070E-1,-7.206314392E0,7.922793917E0
1.167623204E1,3.613036652E0,-2.160008240E-1,-4.863386536E0,6.062443303E0
1.168627104E1,3.955973511E0,-1.920506287E-1,-1.460063782E0,4.221184207E0
1.169631004E1,4.043990479E0,-6.707551575E-1,2.661016388E0,4.887205714E0
1.170635004E1,4.119882660E0,-1.269659729E0,5.407505035E0,6.915676371E0
1.171638904E1,4.678670654E0,-1.692829742E0,6.080206146E0,7.856496573E0
1.172642804E1,5.406457214E0,-2.181563416E0,5.408103790E0,7.952143431E0
1.173646704E1,6.360722809E0,-2.661166077E0,3.952530670E0,7.947521515E0
1.174650604E1,7.364535370E0,-2.983146515E0,2.671494598E0,8.382865127E0
1.175654604E1,8.300988007E0,-3.345243530E0,-1.386267242E0,9.056422750E0
1.176658504E1,6.122268677E0,-5.626649323E0,-5.819897461E-1,8.335470497E0
1.177662404E1,5.951922913E0,-7.335196381E0,3.035238190E0,9.921852809E0
1.178666304E1,1.018467087E1,-9.405541077E0,3.309467926E0,1.425286994E1
1.179670204E1,2.035018158E1,-1.397763336E1,1.886826324E0,2.476013405E1
1.180674104E1,3.528672089E1,-2.260988251E1,-6.592440948E0,4.242428238E1
1.181678104E1,3.877761154E1,-2.819866058E1,-3.000809784E0,4.804032135E1
1.182682004E1,3.406690750E1,-2.980467087E1,6.874155121E0,4.578347519E1
1.183685904E1,2.769840088E1,-3.057586716E1,7.318431244E0,4.190041169E1
1.184689804E1,2.407174255E1,-3.075324829E1,6.546486511E0,3.959883276E1
1.185693704E1,2.224568985E1,-2.896506683E1,5.354365540E0,3.691226143E1
1.186697604E1,1.942585373E1,-2.532703217E1,2.911595306E0,3.205151695E1
1.187701504E1,1.619691833E1,-2.119936569E1,-1.594035187E0,2.672628327E1
1.188705504E1,1.227163101E1,-1.722363327E1,-1.099583405E1,2.383599876E1
1.189709404E1,1.010937744E1,-1.381357452E1,-1.230980164E1,2.108424933E1
1.190713304E1,9.432934113E0,-1.132739456E1,-5.870342560E0,1.586666428E1
1.191717204E1,7.332501984E0,-8.817114716E0,-2.956950989E0,1.184274700E1
1.192721417E1,4.698579254E0,-6.236481171E0,-3.705244904E0,8.642868979E0
1.193725417E1,1.490151215E0,-3.339255981E0,-7.122339020E0,8.006178506E0
1.194729317E1,-7.650590515E-1,-7.101232910E-1,-1.007420059E1,1.012813448E1
1.195733217E1,-1.713935852E0,7.394622803E-1,-9.599088593E0,9.778899855E0
1.196737117E1,-2.001637573E0,1.625170441E0,-8.462801514E0,8.846849235E0
1.197741017E1,-2.162103882E0,2.401905212E0,-7.425159302E0,8.097952365E0
1.198744917E1,-1.925446014E0,2.869682465E0,-4.801714783E0,5.915985519E0
1.199748917E1,-1.581311646E0,2.782114563E0,-3.126099243E0,4.473612013E0
1.200752817E1,-9.888436890E-1,2.315983887E0,-2.009122009E0,3.221515863E0
1.201756717E1,-4.480183411E-1,1.810185699E0,-9.854008484E-1,2.109148533E0
1.202760617E1,7.783813477E-3,1.489253082E0,-2.483335876E-1,1.509836051E0
1.203764517E1,1.678010559E-1,1.275796967E0,2.854563904E-1,1.318066935E0
1.204768417E1,2.222877502E-1,1.168170776E0,5.221142578E-1,1.298706320E0
1.205772417E1,1.778302002E-1,1.065184937E0,6.881190491E-1,1.280527374E0
1.206776317E1,1.121168518E-1,1.047521667E0,9.134005737E-1,1.394335842E0
1.207780217E1,3.442840576E-1,1.442999268E0,9.924362183E-1,1.784855189E0
1.208784117E1,7.822732544E-1,2.220332794E0,1.018182678E0,2.564863569E0
1.209788017E1,1.014290771E0,2.591411133E0,1.066831512E0,2.980323289E0
1.210791917E1,9.943821716E-1,2.684966583E0,1.203647003E0,3.105898834E0
1.211795817E1,7.812254333E-1,2.538720703E0,1.195863190E0,2.912988973E0
1.212799817E1,6.343807983E-1,2.508184204E0,1.023571472E0,2.782287828E0
1.213803717E1,5.165757751E-1,2.439028015E0,7.848179626E-1,2.613742035E0
1.214807617E1,3.932322693E-1,2.242337036E0,5.797444153E-1,2.349214888E0
1.215811517E1,2.706372070E-1,1.921254730E0,4.270619202E-1,1.986667088E0
1.216815417E1,1.478924561E-1,1.511856079E0,3.089575195E-1,1.550172807E0
1.217819417E1,1.423539734E-1,1.083147583E0,2.209405518E-1,1.114579772E0
1.218823317E1,2.052232361E-1,7.363188171E-1,1.728904724E-1,7.836919628E-1
1.219827217E1,2.772235107E-1,5.399272156E-1,6.301895142E-2,6.102013285E-1
1.220831117E1,3.453318787E-1,4.264631653E-1,-2.874023438E-2,5.495006268E-1
1.221835017E1,3.950285339E-1,3.345542908E-1,-1.306782532E-1,5.339016032E-1
1.222838917E1,4.086502075E-1,2.273771667E-1,-2.363584900E-1,5.239854042E-1
1.223842917E1,3.864962769E-1,9.669891357E-2,-3.088078308E-1,5.040757168E-1
1.224846817E1,4.279600525E-1,-7.484436035E-2,-4.002676392E-1,5.907331612E-1
1.225850717E1,1.037941589E0,-3.420387268E-1,-9.415420532E-1,1.442502919E0
1.226854617E1,3.341351624E0,-1.068478088E0,-3.452720032E0,4.922149095E0
1.227858517E1,5.836363220E0,-2.702330475E0,-4.969815216E0,8.128024909E0
1.228862417E1,8.656798096E0,-5.426066437E0,-4.611460419E0,1.120927819E1
1.229866317E1,1.469090012E1,-1.035950729E1,-5.703140259E-1,1.798519379E1
1.230870317E1,2.987397675E1,-1.995919464E1,5.001100159E-1,3.593151886E1
1.231874217E1,5.052817612E1,-3.354793671E1,-3.678750000E0,6.076260232E1
1.232878117E1,5.574916901E1,-4.507471664E1,-2.933898926E-2,7.169170654E1
1.233882017E1,3.762036804E1,-5.618536194E1,-2.364183655E1,7.163116237E1
1.234885917E1,2.342403946E1,-5.653563354E1,-1.492740829E1,6.299040406E1
1.235889917E1,1.459509933E1,-4.495272034E1,9.873617706E0,4.828304378E1
1.236893817E1,9.682914276E0,-2.927013245E1,1.252625153E1,3.327771716E1
1.237897717E1,5.346282349E0,-1.962868195E1,4.358486481E0,2.080539099E1
1.238901617E1,3.968547363E0,-1.510209503E1,1.723216553E0,1.570961864E1
1.239905517E1,4.632267151E0,-1.217448303E1,3.480113068E0,1.348284551E1
1.240909417E1,3.331472168E0,-9.558223572E0,2.921175385E0,1.053525559E1
1.241913417E1,2.012864227E0,-7.229366455E0,1.852248230E0,7.729565657E0
1.242917317E1,1.146615601E0,-5.407804413E0,1.020727386E0,5.621473143E0
1.243921217E1,5.391787720E-1,-4.117038574E0,2.667453003E-1,4.160753949E0
1.244925117E1,-4.029620361E-1,-2.475402374E0,-4.173471222E0,4.869071509E0
1.245929017E1,-3.372935944E0,9.205856323E-1,-1.540775940E1,1.579946912E1
1.246932917E1,-3.050506439E0,1.244811401E0,-9.397906952E0,9.958704737E0
1.247936917E1,-2.004781036E0,6.381230164E-1,-5.728737030E0,6.102849822E0
1.248940817E1,-1.398691406E0,1.728904724E-1,-3.701203308E0,3.960446275E0
1.249944717E1,-7.375163269E-1,-2.513273621E-1,-1.859283600E0,2.015944265E0
1.250948617E1,-1.396595764E-1,-5.833369446E-1,-6.548881531E-1,8.880682864E-1
1.251952517E1,2.601589966E-1,-7.560777283E-1,-9.011260986E-2,8.046468276E-1
1.252956417E1,5.022056580E-1,-8.192463684E-1,4.355941772E-2,9.619108888E-1
1.253960417E1,6.192622375E-1,-7.923023987E-1,-4.670288086E-2,1.006682656E0
1.254964317E1,7.324269104E-1,-7.878117371E-1,-1.609153748E-1,1.087653562E0
1.255968217E1,7.849676514E-1,-9.104067993E-1,-3.598516846E-1,1.254794003E0
1.256972117E1,1.138831787E0,-1.115330658E0,-5.731581116E-1,1.693933451E0
1.257976017E1,1.922901306E0,-1.900597687E0,-6.893165588E-1,2.790157400E0
1.258979917E1,2.489622803E0,-3.977528687E0,-9.668394470E-1,4.791005601E0
1.259983917E1,5.237907715E0,-7.930508423E0,-2.398162994E0,9.802031770E0
1.260987817E1,8.589887238E0,-1.331017136E1,-1.021775208E0,1.587421963E1
1.261991717E1,1.261456787E1,-1.975471985E1,1.994602203E0,2.352349287E1
1.262995617E1,1.533201691E1,-2.587354568E1,3.776796112E0,3.031130643E1
1.263999517E1,1.351180206E1,-2.913571198E1,3.603306885E0,3.231783297E1
1.265003417E1,9.865833893E0,-2.943658630E1,2.051034851E0,3.111356674E1
1.266007417E1,3.481160889E0,-2.623249924E1,-4.559368744E0,2.685238054E1
1.267011317E1,-2.543361053E0,-2.066348007E1,-1.110435837E1,2.359565360E1
1.268015217E1,-3.859573975E0,-1.552122345E1,-1.185983734E1,1.991131413E1
1.269019117E1,-3.221301270E0,-1.123698257E1,-1.116767670E1,1.616674247E1
1.270023017E1,-1.457968140E0,-6.999594269E0,-7.958649902E0,1.069860268E1
1.271026917E1,1.830693054E-1,-3.668870544E0,-7.170089722E0,8.056321249E0
1.272030917E1,1.239422607E0,-2.343975677E0,-7.348069611E0,7.811819083E0
1.273034817E1,1.958527222E0,-1.894909515E0,-6.430627441E0,6.984230827E0
1.274038717E1,2.432441711E0,-1.976938934E0,-5.070256348E0,5.960919364E0
1.275042617E1,2.582280121E0,-2.177821198E0,-4.018244019E0,5.249510528E0
1.276046517E1,2.604134674E0,-2.368075562E0,-3.660338287E0,5.078127179E0
1.277050417E1,2.325264587E0,-2.504142609E0,-4.021836548E0,5.277570921E0
1.278054417E1,1.934876404E0,-2.856210480E0,-4.202810211E0,5.437398153E0
1.279058317E1,1.861079865E0,-3.345842285E0,-3.973038025E0,5.517545651E0
1.280062217E1,1.854792938E0,-3.720662842E0,-2.893333282E0,5.065073179E0
1.281066117E1,2.165846100E0,-4.413871307E0,7.035369873E-3,4.916624731E0
1.282070017E1,3.238515472E0,-5.774990845E0,2.753074951E0,7.170629220E0
1.283073917E1,4.435276794E0,-7.392976227E0,3.894451447E0,9.460154851E0
1.284077917E1,5.993985443E0,-8.587791595E0,4.556674347E0,1.142109045E1
1.285081817E1,6.367758179E0,-9.353299713E0,4.822820892E0,1.230008785E1
1.286085717E1,4.912933502E0,-1.054901321E1,3.870501251E0,1.226374231E1
1.287089617E1,3.134930878E0,-1.275781998E1,4.799020386E0,1.398643481E1
1.288093517E1,1.909728699E0,-1.592134140E1,5.907165985E0,1.708890826E1
1.289097417E1,3.925287323E0,-2.088711502E1,7.193740540E0,2.243723150E1
1.290101417E1,9.533075867E0,-2.966890320E1,1.008228378E1,3.275325631E1
1.291105317E1,1.550086578E1,-3.919359650E1,7.944279785E0,4.288970072E1
1.292109217E1,1.887035889E1,-4.573708923E1,6.175408173E0,4.986088088E1
1.293112800E1,1.621533005E1,-4.747811874E1,5.503605194E0,5.047175803E1
1.294116700E1,1.194785431E1,-4.593093613E1,4.970114594E0,4.771901251E1
1.295120600E1,8.060587921E0,-4.080349869E1,3.754941559E0,4.176120411E1
1.296124600E1,4.035458221E0,-3.225327896E1,-3.195255432E0,3.266142349E1
1.297128500E1,3.012784882E0,-2.388717636E1,-1.618943390E1,2.901330449E1
1.298132400E1,4.448150024E0,-1.926329178E1,-1.160821060E1,2.292620776E1
1.299136300E1,3.675157471E0,-1.629451538E1,-3.214116211E0,1.701024859E1
1.300140200E1,3.148402863E0,-1.199829941E1,-1.588197327E0,1.250575867E1
1.301144100E1,2.519111481E0,-8.221952362E0,-4.456382904E0,9.685337985E0
1.302148100E1,1.444047089E0,-4.927752686E0,-8.932674408E0,1.030343101E1
1.303152000E1,5.291496277E-1,-2.489772491E0,-1.082354233E1,1.111881446E1
1.304155900E1,2.854563904E-1,-1.201102295E0,-9.295819244E0,9.377440349E0
1.305159800E1,5.028044128E-1,-3.191363525E-1,-6.998247070E0,7.023540585E0
1.306163700E1,6.234535217E-1,3.264710999E-1,-5.001998291E0,5.051263661E0
1.307167600E1,7.432044983E-1,5.906716919E-1,-3.220253448E0,3.357272441E0
1.308171600E1,7.228468323E-1,8.583151245E-1,-2.050585785E0,2.337544536E0
1.309175500E1,5.625302124E-1,9.786648560E-1,-1.534608765E0,1.905058844E0
1.310179400E1,6.219566345E-1,9.190887451E-1,-1.148411865E0,1.596998431E0
1.311183300E1,8.225395203E-1,8.922944641E-1,-1.354533234E0,1.818659109E0
1.312187200E1,1.021026764E0,9.756710815E-1,-1.736389160E0,2.238186102E0
1.313191100E1,1.177750854E0,1.033001862E0,-1.613494720E0,2.248900872E0
1.314195100E1,1.682052155E0,1.209035797E0,-1.487905884E0,2.550476608E0
1.315199000E1,2.445015564E0,1.437760162E0,-1.183289337E0,3.073341674E0
1.316202900E1,2.555485840E0,1.391955414E0,-4.650828552E-1,2.946922092E0
1.317206800E1,2.526296539E0,1.336271210E0,-5.807922363E-2,2.858525520E0
1.318210700E1,2.456242218E0,1.340761871E0,1.884580994E-1,2.804689766E0
1.319214600E1,2.337089996E0,1.391955414E0,3.665876770E-1,2.744797998E0
1.320218600E1,2.161654816E0,1.408121796E0,4.876858521E-1,2.625527761E0
1.321222500E1,1.972897339E0,1.401834869E0,5.724096680E-1,2.486989694E0
1.322226400E1,1.853595428E0,1.394350433E0,5.963598633E-1,2.394926769E0
1.323230300E1,1.702409821E0,1.373394012E0,5.938151550E-1,2.266500992E0
1.324234200E1,1.592538300E0,1.374142456E0,5.420228577E-1,2.172149742E0
1.325238100E1,1.502725067E0,1.454974365E0,5.059478760E-1,2.152002854E0
1.326242100E1,1.431473236E0,1.648970947E0,4.429289246E-1,2.228094891E0
1.327246000E1,1.335672455E0,1.868713989E0,4.177812195E-1,2.334663579E0
1.328249900E1,1.150657196E0,1.931433563E0,4.993615723E-1,2.303000124E0
1.329253800E1,1.006956024E0,1.871857452E0,6.373745728E-1,2.219021654E0
1.330257700E1,9.240284729E-1,1.745969238E0,8.029302979E-1,2.132354160E0
1.331261600E1,8.831634521E-1,1.645827484E0,9.662406921E-1,2.102937675E0
1.332265600E1,9.050180054E-1,1.399589539E0,9.825567627E-1,1.934767753E0
1.333269500E1,9.131011963E-1,5.297483826E-1,5.882766724E-1,1.208493520E0
1.334273400E1,5.622308350E-1,-5.664221191E-1,7.080276489E-2,8.012181728E-1
1.335277300E1,4.716691589E-1,-1.222956848E0,-5.014572144E-2,1.311720184E0
1.336281200E1,8.922944641E-1,-1.590143280E0,2.053729248E-1,1.834917737E0
1.337285200E1,1.634600830E0,-2.238894196E0,4.496649170E-1,2.808338589E0
1.338289100E1,3.206631775E0,-3.501219177E0,9.249266052E-1,4.836994138E0
1.339293000E1,5.693260803E0,-5.824687500E0,1.669927368E0,8.314376733E0
1.340296900E1,1.115151031E1,-1.168440216E1,9.542506256E0,1.876008693E1
1.341300800E1,1.320254517E1,-1.779439636E1,1.351838837E1,2.595562684E1
1.342304700E1,1.306378372E1,-3.486040741E1,-8.023315430E-2,3.722790469E1
1.343308700E1,1.866199219E1,-5.496539886E1,-1.364113312E0,5.806311936E1
1.344312600E1,2.064087708E1,-6.284695908E1,-6.475534058E-1,6.615289409E1
1.345316500E1,1.146750320E1,-7.303252808E1,-2.206935654E1,7.715121700E1
1.346320400E1,2.473755798E0,-6.609101303E1,-2.119861725E1,6.945158634E1
1.347324300E1,2.837948456E0,-4.531526642E1,4.236939240E0,4.560130454E1
1.348328200E1,2.047741699E-1,-2.921130478E1,4.156257019E0,2.950621514E1
1.349332200E1,-3.025807800E0,-2.187955124E1,-1.035337006E1,2.439390389E1
1.350336100E1,-4.018992462E0,-1.646246613E1,-1.270078857E1,2.117723121E1
1.351340000E1,-3.208128662E0,-1.271635620E1,-8.016130371E0,1.537062623E1
1.352343900E1,-2.134411469E0,-9.356742554E0,-4.542603607E0,1.061789014E1
1.353347800E1,-1.127605133E0,-6.103707275E0,-2.708916779E0,6.772367825E0
1.354351700E1,8.996292114E-2,-3.351979523E0,-1.657503204E0,3.740478167E0
1.355355700E1,9.422904968E-1,-1.372795258E0,-1.159638519E0,2.029098247E0
1.356359600E1,1.086291046E0,-3.731739807E-1,-9.895921326E-1,1.516106740E0
1.357363500E1,6.243516541E-1,-2.844085693E-2,-8.509803772E-1,1.055836859E0
1.358367400E1,4.038601685E-1,1.854643250E-1,-7.911048889E-1,9.073847016E-1
1.359371300E1,3.604504395E-1,3.769161987E-1,-9.548643494E-1,1.088005637E0
1.360375200E1,3.854484558E-1,5.403762817E-1,-1.106948090E0,1.290701790E0
1.361379200E1,4.679269409E-1,6.444099426E-1,-1.065933380E0,1.330576479E0
1.362383100E1,7.274871826E-1,7.128176880E-1,-8.846603394E-1,1.349062850E0
1.363387000E1,1.124910736E0,6.854246521E-1,-8.307723999E-1,1.557374039E0
1.364390900E1,1.642983398E0,4.379891968E-1,-9.181906128E-1,1.932434471E0
1.365394800E1,2.055226135E0,-3.770658875E-1,-1.041234741E0,2.334588387E0
1.366398700E1,2.065854034E0,-1.592987366E0,-1.264869690E0,2.899182121E0
1.367402700E1,1.613943787E0,-2.474653931E0,-1.701511688E0,3.409379511E0
1.368406600E1,1.325194244E0,-3.088078308E0,-2.344275055E0,4.097315335E0
1.369410500E1,7.972421265E-1,-3.602708130E0,-2.737507324E0,4.594458317E0
1.370414400E1,2.164498901E-1,-4.217479706E0,-2.815495148E0,5.075529386E0
1.371418300E1,-5.548960876E-1,-5.051844635E0,-3.239862671E0,6.027085034E0
1.372422200E1,-1.992955627E0,-6.322552185E0,-3.770808563E0,7.626633300E0
1.373426200E1,-4.415817261E0,-8.261470184E0,-4.163292389E0,1.025106508E1
1.374430100E1,-8.098908234E0,-1.106199646E1,-4.349654846E0,1.438330899E1
1.375434000E1,-1.230411346E1,-1.446232544E1,-4.083957367E0,1.942237815E1
1.376437900E1,-1.629750916E1,-1.905791885E1,-3.213966522E0,2.528127086E1
1.377441800E1,-1.730730927E1,-2.220332794E1,-2.503244476E0,2.826299628E1
1.378445700E1,-1.498443970E1,-2.131971542E1,-3.383114777E0,2.627754106E1
1.379449700E1,-1.079540085E1,-1.629780853E1,-6.459816742E0,2.058855203E1
1.380453600E1,-7.386689301E0,-1.011865814E1,-9.226213989E0,1.555870965E1
1.381457500E1,-5.648653564E0,-4.764741669E0,-1.018242554E1,1.258140851E1
1.382461400E1,-4.873116302E0,-1.082249451E0,-9.191935272E0,1.045993310E1
1.383465300E1,-5.214406586E0,3.161425781E-1,-6.937174072E0,8.684144534E0
1.384469200E1,-6.051465912E0,6.667135620E-1,-4.369713135E0,7.493940188E0
1.385473200E1,-5.611979828E0,9.755213928E-1,-3.702400818E0,6.793653759E0
1.386477100E1,-5.009482727E0,1.002615051E0,-3.492986298E0,6.188788848E0
1.387481000E1,-4.379742279E0,7.363188171E-1,-2.912792816E0,5.311183467E0
1.388484900E1,-3.898493042E0,2.707868958E-1,-2.173929291E0,4.471861145E0
1.389488800E1,-3.448678436E0,-3.978726196E-1,-1.794618073E0,3.907984084E0
1.390492700E1,-2.772684174E0,-1.443897400E0,-1.502276001E0,3.468349811E0
1.391496700E1,-2.477198639E0,-2.714604950E0,-6.764433289E-1,3.736732357E0
1.392500600E1,-3.132236481E0,-4.069437561E0,3.026705933E-1,5.144204207E0
1.393504500E1,-3.743864594E0,-5.666616211E0,1.287472687E0,6.912644016E0
1.394508400E1,-5.246889038E0,-7.998916168E0,1.708397369E0,9.717567906E0
1.395512300E1,-8.339158630E0,-1.160551620E1,1.089434509E0,1.433235642E1
1.396516200E1,-1.023197250E1,-9.166338501E0,4.470753021E0,1.444654476E1
1.397520200E1,-1.394964157E1,-9.029972076E0,6.731801147E0,1.792902793E1
1.398524100E1,-1.987731491E1,-1.294133835E1,9.055868225E0,2.538886834E1
1.399528000E1,-2.838352615E1,-1.867531448E1,9.383836212E0,3.524838025E1
1.400531900E1,-3.703748016E1,-2.324995148E1,6.300847321E0,4.418184987E1
1.401535800E1,-3.634636734E1,-1.866049530E1,-1.337319031E0,4.087861208E1
1.402539700E1,-3.276431625E1,-1.033091675E1,1.222657471E0,3.437620037E1
1.403543700E1,-4.282279953E1,-9.231602783E0,9.204359436E0,4.476309733E1
1.404547600E1,-5.249313995E1,-1.267863464E1,8.158035278E0,5.461530059E1
1.405551500E1,-4.464061935E1,-1.066831512E1,1.732197876E0,4.593036418E1
1.406555400E1,-3.064936432E1,-5.775439911E0,-1.313817902E0,3.121642768E1
1.407559300E1,-2.085358475E1,-2.699636078E0,-2.804268494E0,2.121376802E1
1.408563200E1,-1.411579605E1,-1.324745178E0,-4.747078400E0,1.495143476E1
1.409567200E1,-8.904981995E0,-1.025966492E0,-6.498586121E0,1.107171771E1
1.410571100E1,-4.441713409E0,-1.193019104E0,-8.171058197E0,9.376476132E0
1.411575000E1,-5.336402893E-1,-1.309626617E0,-9.440568237E0,9.545900821E0
1.412578900E1,2.352807312E0,-1.202599182E0,-9.796228638E0,1.014633148E1
1.413582800E1,3.660038910E0,-7.370672607E-1,-9.251511383E0,9.976453069E0
1.414586700E1,4.446054382E0,-1.859133911E-1,-8.178692322E0,9.310906049E0
1.415590700E1,4.111500092E0,1.342707825E-1,-6.809040527E0,7.955218070E0
1.416594600E1,3.523522797E0,2.894979858E-1,-5.577401733E0,6.603516645E0
1.417598500E1,3.240461426E0,3.363505554E-1,-4.584516449E0,5.624189988E0
1.418602400E1,3.156486053E0,3.501219177E-1,-3.701352997E0,4.877089662E0
1.419606300E1,2.882106628E0,2.851570129E-1,-2.850671997E0,4.063764754E0
1.420610300E1,2.444716187E0,7.963439941E-2,-2.040107574E0,3.185124454E0
1.421614200E1,1.992656250E0,-1.652563477E-1,-1.445394287E0,2.467215685E0
1.422618100E1,1.476679230E0,-3.763174438E-1,-1.035396881E0,1.842347163E0
1.423622000E1,1.073118439E0,-5.161267090E-1,-7.521858215E-1,1.408457835E0
1.424625900E1,7.503895569E-1,-5.156776428E-1,-6.018983459E-1,1.091462110E0
1.425629800E1,5.281018066E-1,-4.905299377E-1,-4.433779907E-1,8.462240724E-1
1.426633800E1,4.782554626E-1,-5.168751526E-1,-2.884501648E-1,7.609807543E-1
1.427637700E1,5.337899780E-1,-5.903723145E-1,-1.701960754E-1,8.139028900E-1
1.428641600E1,5.923182678E-1,-6.709048462E-1,-2.260299683E-2,8.952458537E-1
1.429645500E1,6.756948853E-1,-7.334747314E-1,1.255888367E-1,1.005147410E0
1.430649400E1,7.991880798E-1,-8.544232178E-1,4.110452271E-1,1.240039838E0
1.431653300E1,9.228309631E-1,-9.638456726E-1,7.952961731E-1,1.553419283E0
1.432657300E1,1.002165985E0,-1.012793884E0,1.164578247E0,1.840198524E0
1.433661200E1,1.120569763E0,-1.035845947E0,1.567540283E0,2.187655357E0
1.434665100E1,1.247655487E0,-1.028960266E0,1.842668152E0,2.451699280E0
1.435669000E1,1.400637360E0,-1.010099487E0,2.103276215E0,2.721370394E0
1.436672900E1,1.594035187E0,-9.648934937E-1,2.337539063E0,2.989323753E0
1.437676800E1,1.667532349E0,-9.563612366E-1,2.430346069E0,3.098688911E0
1.438680800E1,1.332229614E0,-9.837542725E-1,2.349514160E0,2.874513003E0
1.439684700E1,9.078620911E-1,-1.028810577E0,2.245480499E0,2.631510489E0
1.440688600E1,6.325845337E-1,-1.041683807E0,2.326462097E0,2.626346176E0
1.441692500E1,5.718109131E-2,-9.252259827E-1,4.248165894E0,4.348129052E0
1.442696400E1,-5.303471375E-1,-4.893324280E-1,6.644532623E0,6.683601431E0
1.443700300E1,-8.927435303E-1,-6.192622375E-1,5.417234802E0,5.525116255E0
1.444704300E1,-1.445993042E0,-1.438658295E0,2.872676239E0,3.523194905E0
1.445708200E1,-2.626887360E0,-1.948348389E0,1.585353241E0,3.634548602E0
1.446712100E1,-4.765041046E0,-2.471211090E0,1.272054749E0,5.516395898E0
1.447716000E1,-8.578211517E0,-3.427722015E0,5.260061646E-1,9.252657647E0
1.448719900E1,-1.607836487E1,-4.027524719E0,-5.185965729E0,1.736746996E1
1.449723800E1,-2.784719147E1,8.530760193E-1,-2.188359283E1,3.542718514E1
1.450727800E1,-4.658238144E1,5.202281799E0,1.465901642E1,4.911078047E1
1.451731700E1,-6.131863724E1,-4.928800507E0,3.635639648E0,6.162374723E1
1.452735600E1,-7.397930923E1,-1.367855530E1,-2.082933517E1,7.806345031E1
1.453739500E1,-7.393350449E1,-1.094868210E1,-1.680495392E1,7.660576481E1
1.454743400E1,-4.480842041E1,-3.098107452E0,-9.690398712E0,4.594884804E1
1.455747300E1,-2.360740814E1,4.370910645E-1,-6.530170441E0,2.449783447E1
1.456751300E1,-1.095212494E1,1.492546234E0,-6.152805176E0,1.265044452E1
1.457755200E1,-3.328777771E0,2.313289490E0,-7.360793152E0,8.403174730E0
1.458759100E1,1.203197937E0,2.508333893E0,-9.086853790E0,9.503175048E0
1.459763000E1,3.087479553E0,2.262245636E0,-8.624914398E0,9.436070882E0
1.460766900E1,3.186573486E0,2.149080963E0,-6.183341675E0,7.280557248E0
1.461770800E1,3.074007568E0,2.342478790E0,-3.462599487E0,5.189058163E0
1.462774800E1,2.161654816E0,2.251617737E0,-8.822653198E-1,3.243597705E0
1.463778700E1,6.409671021E-1,1.835632782E0,7.943980408E-1,2.100346348E0
1.464782600E1,-6.057902527E-1,1.240470428E0,1.563498688E0,2.085731733E0
1.465786500E1,-1.696871338E0,8.250842285E-1,1.969604187E0,2.727540463E0
1.466790400E1,-2.583327942E0,4.161346436E-1,2.287842407E0,3.475769581E0
1.467794300E1,-3.078348541E0,8.726852417E-2,2.658022614E0,4.068037580E0
1.468798300E1,-3.255729675E0,-1.137634277E-1,2.923121338E0,4.376911719E0
1.469802200E1,-3.226989441E0,-2.501298523E-1,2.987188110E0,4.404465757E0
1.470806100E1,-3.093467102E0,-3.162922668E-1,3.028352509E0,4.340564298E0
1.471810000E1,-3.367397461E0,-2.981799316E-1,3.079396362E0,4.572850193E0
1.472813900E1,-4.637057190E0,-2.284249878E-1,3.352877655E0,5.726802417E0
1.473817800E1,-6.582561493E0,-1.152603149E-1,3.448528748E0,7.432075839E0
1.474821800E1,-8.826545105E0,2.098635864E-1,2.348616028E0,9.136078943E0
1.475825700E1,-1.068118835E1,4.686753845E-1,2.328857117E0,1.094216691E1
1.476829600E1,-1.226983475E1,4.682263184E-1,3.527115326E0,1.277531303E1
1.477833500E1,-1.476469666E1,-2.058219910E-1,3.019969940E0,1.507178982E1
1.478837400E1,-1.799647614E1,-1.569486237E0,2.171085205E0,1.819478088E1
1.479841400E1,-2.069641159E1,-2.905308380E0,1.063538361E0,2.092638008E1
1.480845300E1,-2.102542740E1,-3.232976990E0,-9.422904968E-1,2.129339449E1
1.481849200E1,-1.781520309E1,-1.920356598E0,-3.593427429E0,1.827517309E1
1.482853100E1,-1.391401566E1,-2.414479065E-1,-6.085295563E0,1.518844794E1
1.483857000E1,-1.115091156E1,9.217831421E-1,-8.413404236E0,1.399921011E1
1.484860900E1,-9.217532043E0,1.593137054E0,-1.019619690E1,1.383703053E1
1.485864900E1,-7.445516968E0,1.956281891E0,-1.137858810E1,1.373808680E1
1.486868800E1,-5.596711578E0,2.075883179E0,-1.225157272E1,1.362840804E1
1.487872700E1,-3.709286499E0,1.860032043E0,-1.270722519E1,1.336757635E1
1.488876600E1,-2.053280182E0,1.407073975E0,-1.254780670E1,1.279231291E1
1.489880500E1,-7.099736023E-1,1.087338867E0,-1.192330536E1,1.199381420E1
1.490884400E1,3.785627747E-1,1.060544586E0,-1.102217926E1,1.107955325E1
1.491888400E1,9.505233765E-1,1.002465363E0,-9.423503723E0,9.524224583E0
1.492892300E1,9.292675781E-1,7.327262878E-1,-7.994275818E0,8.081390468E0
1.493896117E1,-2.109114075E-1,1.966909790E-1,-7.335196381E0,7.340863499E0
1.494900017E1,-2.652633820E0,-8.987310791E-1,-6.678062897E0,7.241595666E0
1.495903917E1,-6.039790192E0,-2.427951050E0,-3.789220276E0,7.532078210E0
1.496907817E1,-9.209448853E0,-3.476370850E0,1.347198486E-2,9.843743391E0
1.497911817E1,-1.123758133E1,-4.423152008E0,1.807042236E0,1.221117969E1
1.498915717E1,-1.256038055E1,-5.585634613E0,2.780018921E0,1.402465611E1
1.499919617E1,-1.291649002E1,-6.542295227E0,3.638783112E0,1.492910191E1
1.500923517E1,-1.277518387E1,-5.250331879E0,4.934788055E0,1.466708699E1
1.501927417E1,-1.322020844E1,-1.363514557E0,6.902296600E0,1.497580653E1
1.502931317E1,-1.631337616E1,-4.725672913E-1,9.975855103E0,1.912765659E1
1.503935317E1,-2.286854462E1,-2.269281006E-1,1.232087860E1,2.597741093E1
1.504939217E1,-3.243559982E1,1.120869141E0,1.181957108E1,3.454021922E1
1.505943117E1,-4.268658279E1,6.730004883E-1,8.659193115E0,4.356120873E1
1.506947017E1,-5.083354111E1,-2.029629364E0,6.026916962E0,5.122979626E1
1.507950917E1,-5.429374557E1,-2.943179626E0,5.821693726E0,5.468423203E1
1.508954817E1,-4.803855331E1,-1.468446350E-1,6.879843292E0,4.852892345E1
1.509958817E1,-3.600986710E1,1.811682587E0,2.963088226E0,3.617696247E1
1.510962717E1,-2.798460571E1,2.163002014E0,-6.544690247E0,2.882099417E1
1.511966617E1,-2.268083496E1,1.958676910E0,-1.190803711E1,2.569159469E1
1.512970517E1,-1.802042633E1,1.722767487E0,-1.331256638E1,2.247060561E1
1.513974417E1,-1.394036087E1,1.308129730E0,-1.312365921E1,1.919050014E1
1.514978317E1,-1.042417282E1,6.773414612E-1,-1.176074341E1,1.573013846E1
1.515982317E1,-6.948700104E0,-5.044509888E-2,-1.080213684E1,1.284418694E1
1.516986217E1,-3.227139130E0,-8.641529846E-1,-1.042147842E1,1.094387499E1
1.517990117E1,-1.956431580E-1,-1.244512024E0,-9.137298889E0,9.223736630E0
1.518994017E1,1.862277374E0,-8.716374207E-1,-7.673941956E0,7.944634287E0
1.519997917E1,3.172203369E0,-6.945556641E-2,-6.599027252E0,7.322216807E0
1.521001817E1,3.669918365E0,3.700305176E-1,-6.054759064E0,7.089804702E0
1.522005817E1,3.939807129E0,4.574487305E-1,-5.565576324E0,6.834250462E0
1.523009717E1,3.992647247E0,4.085005188E-1,-4.967120819E0,6.385952861E0
1.524013617E1,3.673510895E0,2.598596191E-1,-3.760929108E0,5.263724638E0
1.525017517E1,2.947819977E0,-8.472381592E-2,-1.859433289E0,3.486303615E0
1.526021417E1,2.151176605E0,-4.447251892E-1,-2.595602417E-1,2.211947739E0
1.527025417E1,1.712438965E0,-7.560777283E-1,6.146218872E-1,1.970243844E0
1.528029317E1,1.565145264E0,-1.064885559E0,8.695417786E-1,2.083209988E0
1.529033217E1,1.310225372E0,-1.247954865E0,7.077282715E-1,1.942925932E0
1.530037117E1,1.015338593E0,-1.197958832E0,4.754113770E-1,1.640741844E0
1.531041017E1,8.376580811E-1,-1.191821594E0,2.960842896E-1,1.486531426E0
1.532044917E1,7.696994019E-1,-1.285077667E0,1.300794983E-1,1.503589856E0
1.533048917E1,7.524851990E-1,-1.364263000E0,6.511459351E-2,1.559386873E0
1.534052817E1,7.267387390E-1,-1.428629150E0,1.014889526E-1,1.606060538E0
1.535056717E1,6.749464417E-1,-1.483265533E0,2.477348328E-1,1.648333064E0
1.536060617E1,7.484436035E-1,-1.562450867E0,5.453160095E-1,1.816257165E0
1.537064517E1,5.966592407E-1,-1.586401062E0,7.973918152E-1,1.873100180E0
1.538068417E1,6.225553894E-1,-1.550775146E0,1.021775208E0,1.958699401E0
1.539072417E1,5.117857361E-1,-1.517544250E0,1.333427124E0,2.083960913E0
1.540076317E1,2.710862732E-1,-1.482816467E0,1.572480011E0,2.178285066E0
1.541080217E1,1.887574768E-1,-1.448388062E0,1.749861145E0,2.279357670E0
1.542084117E1,3.188369751E-2,-1.415456543E0,1.879491577E0,2.353087840E0
1.543088017E1,-2.421963501E-1,-1.340462494E0,1.964365082E0,2.390445344E0
1.544091917E1,-5.456153870E-1,-1.210532684E0,2.861898651E0,3.154924630E0
1.545095917E1,-5.646258545E-1,-8.331674194E-1,3.837569733E0,3.967355764E0
1.546099817E1,-1.414558411E-1,-2.996768188E-1,3.563339996E0,3.578715954E0
1.547103717E1,1.389111328E-1,2.170486450E-2,3.670068054E0,3.672760124E0
1.548107617E1,8.816665649E-2,1.628613281E-1,4.667294312E0,4.670967069E0
1.549111517E1,-4.150868225E-1,-2.558180237E-1,5.582790527E0,5.604042291E0
1.550115517E1,-9.916877747E-1,-1.790426788E0,2.634222107E0,3.335895507E0
1.551119417E1,-2.639161835E0,-2.735561371E0,-3.659889221E-1,3.818693375E0
1.552123317E1,-6.039191437E0,-2.586321716E0,-1.494791565E0,6.737603064E0
1.553127217E1,-1.238853790E1,-8.681945801E-1,-7.113357697E0,1.431186539E1
1.554131117E1,-2.212474136E1,1.723066864E0,-1.443208832E1,2.647184000E1
1.555135017E1,-3.353311752E1,4.416715393E0,-1.497665588E1,3.699023611E1
1.556139017E1,-5.011174210E1,7.296277313E0,1.165281784E1,5.196354994E1
1.557142917E1,-6.695022629E1,-3.521277466E0,2.226919098E0,6.707973885E1
1.558146817E1,-7.582706680E1,-9.549990692E0,-1.930265991E1,7.882600498E1
1.559150717E1,-6.069772842E1,-2.736609192E0,-1.399664383E1,6.235069610E1
1.560154617E1,-3.436014771E1,2.760260010E0,-8.282426605E0,3.545190229E1
1.561158517E1,-1.984662872E1,4.059408417E0,-5.563480682E0,2.100761256E1
1.562162517E1,-1.068987030E1,3.835623779E0,-3.797602844E0,1.197527136E1
1.563166417E1,-4.628524933E0,3.690725098E0,-3.551664276E0,6.903550820E0
1.564170317E1,-6.979985046E-1,3.294349365E0,-3.799099731E0,5.076721228E0
1.565174217E1,1.262175293E0,2.634521484E0,-3.700604553E0,4.714685990E0
1.566178117E1,2.138303375E0,2.030527496E0,-3.432661743E0,4.525323180E0
1.567182017E1,2.510130157E0,1.702858887E0,-2.497406616E0,3.929061160E0
1.568186017E1,2.297272797E0,1.620081024E0,-1.347348175E0,3.117285988E0
1.569189917E1,1.878443756E0,1.376238098E0,-4.969665527E-2,2.329174104E0
1.570193817E1,9.928852844E-1,9.800120544E-1,1.147962799E0,1.806671913E0
1.571197717E1,-2.263293457E-1,4.878355408E-1,1.876797180E0,1.952325829E0
1.572201617E1,-1.231938171E0,1.190025330E-1,2.361938324E0,2.666568189E0
1.573205517E1,-2.001637573E0,-1.944456482E-1,2.839295654E0,3.479362283E0
1.574209517E1,-2.515668640E0,-4.336482239E-1,3.321143646E0,4.188870326E0
1.575213417E1,-2.447260895E0,-6.224057007E-1,3.221900024E0,4.093545469E0
1.576217317E1,-2.668201447E0,-8.809181213E-1,3.099754028E0,4.183753187E0
1.577221217E1,-3.241958313E0,-1.059197388E0,3.244503021E0,4.707333923E0
1.578225117E1,-4.092190247E0,-8.933422852E-1,3.419189758E0,5.406934442E0
1.579229117E1,-5.340294800E0,-4.287084961E-1,3.845203857E0,6.594553224E0
1.580233017E1,-7.174281006E0,4.427792358E-1,4.198469238E0,8.324272061E0
1.581236917E1,-9.565109253E0,1.174308014E0,3.332519989E0,1.019686245E1
1.582240817E1,-1.221040833E1,1.556912384E0,2.396666107E0,1.254041690E1
1.583244717E1,-1.531944305E1,1.833686829E0,1.645528107E0,1.551629806E1
1.584248617E1,-1.874791351E1,1.996697845E0,9.162446594E-1,1.887619050E1
1.585252617E1,-2.231933670E1,1.808389435E0,2.092648315E-1,2.239345563E1
1.586256517E1,-2.382445679E1,1.282383270E0,-5.463638306E-1,2.386519980E1
1.587260417E1,-1.924068878E1,1.591191101E0,-2.997217255E0,1.953763817E1
1.588264317E1,-1.266980301E1,2.806064758E0,-7.276817780E0,1.487783535E1
1.589268217E1,-8.027357025E0,3.767665100E0,-1.083671494E1,1.400243378E1
1.590272117E1,-5.185666351E0,4.248764648E0,-1.237416779E1,1.407349157E1
1.591276117E1,-3.882326660E0,4.084855499E0,-1.236907837E1,1.359237302E1
1.592280017E1,-3.391197968E0,3.439098358E0,-1.155851395E1,1.252704537E1
1.593284013E1,-3.176843719E0,2.587070160E0,-1.045470932E1,1.122881182E1
1.594287913E1,-2.946772156E0,1.672771454E0,-9.291478271E0,9.890055558E0
1.595291813E1,-2.529739380E0,9.301657104E-1,-7.962841187E0,8.406641978E0
1.596295813E1,-1.830094299E0,5.712121582E-1,-6.657705231E0,6.928244180E0
1.597299713E1,-1.215771790E0,3.553610229E-1,-5.627547455E0,5.768333629E0
1.598303612E1,-1.338516541E0,1.895059204E-1,-5.919590149E0,6.071991976E0
1.599307512E1,-3.162024536E0,-1.028361511E-1,-6.852749634E0,7.547791199E0
1.600311413E1,-5.966592407E0,-7.622149658E-1,-6.321055298E0,8.725648210E0
1.601315313E1,-8.654852142E0,-1.591640167E0,-3.538341980E0,9.484706005E0
1.602319313E1,-1.102247864E1,-2.059267731E0,-5.677693176E-1,1.122755454E1
1.603323213E1,-1.250828888E1,-2.121687927E0,1.385219421E0,1.276235414E1
1.604327113E1,-1.255529114E1,-2.380050659E0,2.579286346E0,1.303659061E1
1.605331013E1,-1.176628189E1,-2.520608368E0,2.835254059E0,1.236274733E1
1.606334913E1,-1.117635864E1,-1.718576202E0,2.696642303E0,1.162481726E1
1.607338813E1,-1.121827148E1,-5.047503662E-1,3.596570892E0,1.179151009E1
1.608342812E1,-1.212748077E1,4.673281860E-1,5.354814606E0,1.326530154E1
1.609346712E1,-1.462952774E1,1.759740601E0,6.435567169E0,1.607906383E1
1.610350613E1,-1.854882751E1,4.088148651E0,4.961732025E0,1.963137148E1
1.611354513E1,-2.339619736E1,7.422464905E0,2.242486725E0,2.464759182E1
1.612358413E1,-3.134421936E1,8.683592377E0,5.810766449E0,3.303982250E1
1.613362413E1,-4.240142578E1,7.371720428E0,1.245919098E1,4.480462711E1
1.614366313E1,-5.265195969E1,6.384673004E0,1.742107269E1,5.582550208E1
1.615370213E1,-5.670912277E1,1.331331482E0,7.899373169E0,5.727213236E1
1.616374113E1,-4.543950806E1,5.022056580E-1,-2.373763733E0,4.550423999E1
1.617378013E1,-3.137385773E1,2.343676300E0,-3.974983978E0,3.171139014E1
1.618381912E1,-2.240465927E1,1.937720490E0,-6.288123779E0,2.335088903E1
1.619385913E1,-1.648746414E1,8.442443848E-1,-9.606573029E0,1.910066668E1
1.620389813E1,-1.252774841E1,1.300794983E-1,-1.120150635E1,1.680580690E1
1.621393713E1,-9.733509064E0,-1.323248291E-1,-1.068972061E1,1.445782955E1
1.622397613E1,-7.203021240E0,-3.936813354E-2,-9.643845520E0,1.203697725E1
1.623401513E1,-4.326153717E0,-1.163081360E-1,-8.971294098E0,9.960584890E0
1.624405413E1,-1.340013428E0,-5.480104065E-1,-9.029073944E0,9.144404173E0
1.625409413E1,1.180894318E0,-8.174501038E-1,-9.102720795E0,9.215327554E0
1.626413313E1,3.175646210E0,-3.523672485E-1,-8.722062378E0,9.288878493E0
1.627417213E1,4.031865692E0,4.593946838E-1,-8.242310028E0,9.187091979E0
1.628421112E1,4.107009430E0,1.108295288E0,-7.390730896E0,8.527528838E0
1.629425012E1,3.812721405E0,1.477277985E0,-6.241570587E0,7.461661889E0
1.630429013E1,3.455863495E0,1.656754761E0,-4.927004242E0,6.242050916E0
1.631432913E1,3.021915894E0,1.606908417E0,-3.434308319E0,4.848567207E0
1.632436813E1,2.438878326E0,1.315614166E0,-1.828148346E0,3.319803383E0
1.633440713E1,1.842219086E0,9.033714294E-1,-3.858975220E-1,2.087766270E0
1.634444613E1,1.307980042E0,4.713697815E-1,7.009922791E-1,1.557045740E0
1.635448513E1,9.758207703E-1,2.025288391E-1,1.194965057E0,1.556015937E0
1.636452513E1,8.857081604E-1,-1.975891113E-2,1.216220856E0,1.504680208E0
1.637456412E1,8.683442688E-1,-2.911445618E-1,1.149759064E0,1.469943138E0
1.638460312E1,8.587641907E-1,-4.915777588E-1,1.013242950E0,1.416257711E0
1.639464213E1,8.110134888E-1,-5.890251160E-1,8.496331787E-1,1.313990108E0
1.640468113E1,7.538323975E-1,-6.264472961E-1,7.044351196E-1,1.207032865E0
1.641472113E1,7.336244202E-1,-6.994953918E-1,6.331832886E-1,1.195165122E0
1.642476013E1,7.286846924E-1,-7.698490906E-1,6.285429382E-1,1.232361647E0
1.643479913E1,7.970924377E-1,-8.408015442E-1,7.427554321E-1,1.376222810E0
1.644483813E1,6.604266357E-1,-9.288185120E-1,9.415420532E-1,1.478299228E0
1.645487713E1,5.255570984E-1,-9.909393311E-1,1.211879883E0,1.651309744E0
1.646491613E1,3.360511780E-1,-1.069675598E0,1.574126587E0,1.932617601E0
1.647495612E1,1.601669312E-1,-1.124910736E0,1.921254730E0,2.232106034E0
1.648499512E1,-1.166075134E-1,-1.178798676E0,2.016157379E0,2.338387095E0
1.649503413E1,-4.936734009E-1,-1.259630585E0,1.775158539E0,2.231943206E0
1.650507313E1,-7.557783508E-1,-1.306333466E0,1.447340240E0,2.091052800E0
1.651511213E1,-8.698411560E-1,-1.280137939E0,1.284778290E0,2.011475089E0
1.652515213E1,-9.788145447E-1,-1.205742645E0,1.224304047E0,1.977577720E0
1.653519113E1,-8.893006897E-1,-1.203048248E0,2.634072418E0,3.029276862E0
1.654523013E1,-2.137554932E-1,-1.292562103E0,7.643405457E0,7.754872995E0
1.655526913E1,8.262817383E-2,-1.653311920E0,7.252717896E0,7.439232796E0
1.656530813E1,-9.771679688E-1,-2.763852539E0,3.252137146E0,4.378371171E0
1.657534712E1,-2.523003387E0,-3.074606323E0,-2.540217590E-1,3.985382941E0
1.658538713E1,-3.517086182E0,-1.716181183E0,-7.963439941E-1,3.993662081E0
