"Time (s)","Acceleration x (m/s^2)","Acceleration y (m/s^2)","Acceleration z (m/s^2)","Absolute acceleration (m/s^2)"
-5.764166635E-4,-2.885100403E0,1.578617249E0,7.901019745E0,8.558151071E0
9.462583330E-3,-2.923720093E0,1.538949738E0,7.150480499E0,7.876920518E0
1.950158333E-2,-4.808001709E0,8.806187439E-1,5.736670532E0,7.536694143E0
2.954058333E-2,-5.851930847E0,4.414320374E-1,4.685706024E0,7.509713565E0
3.957958333E-2,-7.388186188E0,-1.137634277E-2,7.003486176E0,1.018009053E1
4.961958333E-2,-6.043532410E0,-7.604187012E-2,6.322402496E0,8.746590174E0
5.965858333E-2,-4.846471710E0,4.932243347E-1,5.433700562E0,7.297716086E0
6.969758333E-2,-3.610791321E0,-2.194436646E-1,6.172863464E0,7.154733596E0
7.973658334E-2,-3.323538666E0,-4.537065125E-1,6.166426849E0,7.019727840E0
8.977558334E-2,-3.792663116E0,-3.508703613E-1,6.144123230E0,7.228945552E0
9.981458334E-2,-3.404819641E0,-9.647438049E-1,6.026467896E0,6.988693919E0
1.098545833E-1,-3.308420105E0,-1.238674164E0,5.675896912E0,6.685488989E0
1.198935833E-1,-4.512665863E0,-1.016087036E0,4.244124298E0,6.277672906E0
1.299325833E-1,-5.947731628E0,-1.684147797E0,1.663640442E0,6.401528321E0
1.399715833E-1,-4.933590546E0,-2.949765930E0,1.021775208E0,5.838275369E0
1.500105833E-1,-4.313280487E0,-2.745291138E0,2.213896179E-1,5.117619110E0
1.600505833E-1,-4.155508575E0,-2.584974518E0,6.024971008E-1,4.930856674E0
1.700895833E-1,-3.710783386E0,-3.143313446E0,2.089804230E0,5.293166772E0
1.801285833E-1,-3.122057648E0,-3.805835724E0,4.071832581E0,6.388383996E0
1.901675833E-1,-2.726580048E0,-4.400249634E0,5.880671082E0,7.834457733E0
2.002065833E-1,-3.584745483E0,-4.327500916E0,6.387367401E0,8.507415981E0
2.102455833E-1,-5.591472473E0,-3.755839691E0,4.340972900E0,8.013422610E0
2.202855833E-1,-6.932084656E0,-3.775299225E0,1.497336273E0,8.034220424E0
2.303245833E-1,-7.539820862E0,-4.169878693E0,7.119195557E-1,8.645439052E0
2.403635833E-1,-7.353458405E0,-4.601431274E0,3.071612549E0,9.202245592E0
2.504025833E-1,-6.604565735E0,-5.170996857E0,7.025640106E0,1.094162309E1
2.604415833E-1,-5.851481781E0,-6.157146149E0,1.093176727E1,1.384390925E1
2.704805833E-1,-4.957091675E0,-7.084617462E0,1.388946671E1,1.636098554E1
2.805205833E-1,-5.592220917E0,-8.408614197E0,1.453043381E1,1.769494940E1
2.905595833E-1,-8.206235046E0,-8.096513214E0,1.390877655E1,1.806515666E1
3.005985833E-1,-9.292526093E0,-7.279362488E0,1.195803314E1,1.680281869E1
3.106378333E-1,-1.008093658E1,-6.412814484E0,9.199719086E0,1.507926733E1
3.206768333E-1,-1.209095673E1,-5.490881653E0,6.727160797E0,1.488609110E1
3.307168333E-1,-1.460587692E1,-4.765939178E0,5.331912231E0,1.626269058E1
3.407558333E-1,-1.777299088E1,-3.772455139E0,5.205125885E0,1.889984016E1
3.507948333E-1,-1.906196045E1,-3.685935059E0,4.419260101E0,1.991166274E1
3.608338333E-1,-2.015887939E1,-2.495909729E0,2.960693207E0,2.052743745E1
3.708728333E-1,-2.171878555E1,-1.346749420E0,2.237996063E0,2.187528300E1
3.809118333E-1,-2.191472809E1,-1.515747986E0,2.234253845E0,2.208041416E1
3.909518333E-1,-2.112482071E1,-1.764530640E0,1.946701813E0,2.128758479E1
4.009908333E-1,-2.043939606E1,-1.151106262E0,2.071841583E0,2.057635741E1
4.110298333E-1,-2.027488815E1,-5.535488892E-1,2.819087677E0,2.047742077E1
4.210688333E-1,-2.023087967E1,-4.119433594E-1,2.843936005E0,2.043394630E1
4.311078333E-1,-2.004900787E1,-7.294331360E-1,1.303489380E0,2.010457346E1
4.411468333E-1,-1.966131409E1,-7.939489746E-1,-1.130748596E0,1.970980007E1
4.511868333E-1,-1.951566696E1,-5.733078003E-1,-2.934497681E0,1.974338409E1
4.612258333E-1,-1.876123581E1,-9.842033386E-1,-4.269421692E0,1.926604752E1
4.712648333E-1,-1.714953735E1,-1.234033813E0,-5.321733398E0,1.799861987E1
4.813038333E-1,-1.533246597E1,-1.089733887E0,-5.838907928E0,1.644277588E1
4.913428333E-1,-1.434781357E1,-5.824388123E-1,-5.370382233E0,1.533101414E1
5.013818333E-1,-1.437281158E1,-2.383044434E-1,-4.220772858E0,1.498163627E1
5.114218333E-1,-1.417447403E1,-5.658233643E-1,-3.203937378E0,1.454307687E1
5.214608333E-1,-1.318787567E1,-9.559121704E-1,-1.757046204E0,1.333870474E1
5.314998333E-1,-1.131991013E1,-1.042132874E0,-6.221063232E-1,1.138478908E1
5.415388333E-1,-9.784403229E0,-1.035396881E0,-1.514700165E0,9.954943989E0
5.515778333E-1,-8.826545105E0,-8.394543457E-1,-2.090702362E0,9.109534481E0
5.616178333E-1,-7.367229767E0,-6.375242615E-1,-2.214045868E0,7.719100383E0
5.716568333E-1,-5.549260254E0,2.957849121E-1,-2.668351135E0,6.164566153E0
5.816958333E-1,-3.995641022E0,1.850152588E0,-3.182232513E0,5.432753956E0
5.917348333E-1,-3.644171906E0,3.702550507E0,-3.472029877E0,6.248508670E0
6.017738333E-1,-4.591701508E0,5.332810364E0,-3.509901123E0,7.863968146E0
6.118128333E-1,-5.672603760E0,5.877976685E0,-3.628005524E0,8.938202694E0
6.218528333E-1,-6.006559296E0,5.469925232E0,-4.226011963E0,9.157402128E0
6.318918333E-1,-4.969366150E0,4.833149414E0,-4.772226105E0,8.415941729E0
6.419308333E-1,-4.490661621E-1,-7.942483521E-1,-5.021008759E0,5.103236210E0
6.519698333E-1,5.192402344E0,-2.332165237E1,-1.023586441E1,2.599294966E1
6.620088333E-1,5.685776367E0,1.965113525E0,5.400918732E0,8.084531354E0
6.720488333E-1,-2.547851715E0,-2.392325134E0,8.782237244E-1,3.603615521E0
6.820878333E-1,-8.930728455E0,-1.602118378E0,-6.409671021E-1,9.095907478E0
6.921268333E-1,-9.539961548E0,3.951782227E-1,-3.197800140E0,1.006940703E1
7.021658333E-1,-8.998687134E0,2.162852325E0,-6.878945160E0,1.153144340E1
7.122048333E-1,-8.552614746E0,3.282673645E0,-1.018976028E1,1.370234943E1
7.222438333E-1,-1.070633606E1,3.472778320E0,-1.019963974E1,1.518941974E1
7.322838333E-1,-1.532977158E1,2.903512115E0,-5.961053925E0,1.670228856E1
7.423228333E-1,-1.830064362E1,1.241667938E0,1.981429596E0,1.844942707E1
7.523618333E-1,-1.864313141E1,6.635700989E-1,1.001806732E1,2.117471008E1
7.624008333E-1,-1.701466782E1,6.243516541E-1,1.350910767E1,2.173441340E1
7.724398333E-1,-1.445978073E1,9.559121704E-1,1.313159271E1,1.955601580E1
7.824788333E-1,-1.137768997E1,2.230511627E0,9.737999725E0,1.514119050E1
7.925188333E-1,-8.846753082E0,2.655777283E0,6.468199310E0,1.127633785E1
8.025578333E-1,-6.874604187E0,2.052980804E0,1.375938721E0,7.305348744E0
8.125968333E-1,-6.226002960E0,5.195695496E-1,-3.773802338E0,7.298948517E0
8.226358333E-1,-5.877078552E0,-7.185058594E-2,-5.242997131E0,7.876181418E0
8.326748333E-1,-5.440137177E0,5.882766724E-2,-4.419858856E0,7.009543887E0
8.427148333E-1,-5.716013489E0,-3.990701294E-1,-3.044668579E0,6.488611094E0
8.527538333E-1,-5.893394623E0,-9.645941162E-1,-1.635648651E0,6.191759726E0
8.627928333E-1,-5.494923248E0,-1.042881317E0,-8.039781189E-1,5.650501196E0
8.728318333E-1,-4.986730042E0,-1.643432465E0,-2.252815247E-1,5.255387573E0
8.828708333E-1,-4.783303070E0,-2.150278473E0,3.923341370E-1,5.259050470E0
8.929098333E-1,-5.466033325E0,-2.790048065E0,-1.063538361E0,6.228402874E0
9.029498333E-1,-6.728208618E0,-4.524341583E0,-3.776496735E0,8.944293463E0
9.129888333E-1,-6.612050171E0,-5.610632629E0,-5.139861603E0,1.008050511E1
9.230278333E-1,-6.860683136E0,-6.306086426E0,-7.083719330E0,1.170533121E1
9.330668333E-1,-6.147566071E0,-6.826703796E0,-6.982080688E0,1.153888660E1
9.431058333E-1,-6.367608490E0,-7.941435699E0,-6.028114471E0,1.183008888E1
9.531448333E-1,-8.944200439E0,-1.013362701E1,-6.791227570E0,1.512646323E1
9.631848333E-1,-1.147738266E1,-1.104747665E1,-7.043153687E0,1.741789502E1
9.732238333E-1,-1.369771545E1,-1.000968475E1,-5.586981812E0,1.786156665E1
9.832628333E-1,-1.387539597E1,-7.482041016E0,-5.178481293E0,1.659289666E1
9.933018333E-1,-1.095047836E1,-1.215023346E0,-3.871549072E0,1.167810560E1
1.003340833E0,-7.951165466E0,5.405259705E-1,-2.940634918E0,8.494735683E0
1.013379833E0,-5.892346802E0,-3.382815399E0,-2.349364471E0,7.189068387E0
1.023419833E0,-4.565206604E0,-5.376070404E0,-6.108796692E-1,7.079295042E0
1.033458833E0,-3.501069489E0,-5.452112274E0,2.071991272E0,6.802658572E0
1.043497833E0,-3.395239563E0,-7.060667267E0,1.042881317E0,7.903687455E0
1.053536833E0,-4.389621735E0,-1.022867935E1,-4.252656555E-1,1.113891876E1
1.063575833E0,-3.039279785E0,-8.397686920E0,2.417173462E0,9.252085968E0
1.073615833E0,-1.244961090E0,-6.173312531E0,1.357826385E0,6.442313886E0
1.083654833E0,-2.179467773E-1,-6.090235291E0,-1.014290771E0,6.177965074E0
1.093693833E0,-6.828799438E-1,-5.910159760E0,-3.656596069E0,6.983337899E0
1.103732833E0,-6.653663635E-1,-5.833369446E0,-4.376748505E0,7.323034819E0
1.113771833E0,-1.167572021E-2,-5.840255127E0,-4.200115814E0,7.193725677E0
1.123810833E0,4.611909485E-1,-6.312223663E0,-5.266198883E0,8.233450998E0
1.133850833E0,1.223405914E0,-6.201154633E0,-5.401218109E0,8.314096335E0
1.143889833E0,1.689536591E0,-4.280648346E0,-2.561473389E0,5.266842515E0
1.153928833E0,2.247576141E0,-6.188880157E0,3.731739807E-1,6.594929487E0
1.163967833E0,4.015998688E0,-1.027223877E1,2.284100189E0,1.126340306E1
1.174006833E0,6.653963013E0,-1.403062317E1,3.973487091E0,1.602879315E1
1.184046833E0,7.775580597E0,-1.754142242E1,4.044140167E0,1.960908524E1
1.194085833E0,5.759572906E0,-2.051304291E1,4.104464722E0,2.169802387E1
1.204124833E0,3.240311737E0,-2.097647919E1,8.699908447E-1,2.124309731E1
1.214163833E0,6.141728210E-1,-1.959694794E1,-2.062411194E0,1.971474364E1
1.224202833E0,3.611988831E-1,-1.880644180E1,6.366261292E-1,1.882068040E1
1.234241833E0,1.373244324E0,-1.835887253E1,3.981420593E0,1.883575617E1
1.244281833E0,4.083508301E0,-1.639735153E1,5.794899445E0,1.786418307E1
1.254320833E0,6.988966370E0,-1.380923355E1,6.042484589E0,1.661481875E1
1.264359833E0,8.065976715E0,-1.125644211E1,4.702171783E0,1.462456457E1
1.274398833E0,7.592960358E0,-8.715925140E0,2.590962067E0,1.184624339E1
1.284437833E0,7.202422485E0,-6.143225098E0,-3.904630280E0,1.024012900E1
1.294476833E0,6.171965332E0,-3.985462189E0,-7.894583130E0,1.078431767E1
1.304519750E0,4.980143738E0,-2.702330475E0,-3.757336578E0,6.798676328E0
1.314558750E0,4.752167816E0,-1.740281067E0,-3.408561859E0,6.101636755E0
1.324597750E0,5.267695770E0,-1.582509155E0,-7.637268219E0,9.411738405E0
1.334636750E0,6.540349274E0,-2.411036224E0,-1.630604141E1,1.773347825E1
1.344675750E0,8.023914185E0,-4.113745422E0,-1.545206726E1,1.789056966E1
1.354715750E0,1.006851242E1,-4.962330780E0,-1.016131943E1,1.514107267E1
1.364754750E0,1.190639053E1,-5.279820557E0,-7.360194397E0,1.496031758E1
1.374793750E0,1.129835495E1,-5.760620728E0,-5.405259705E0,1.378602220E1
1.384832750E0,9.863289185E0,-6.191275177E0,-3.891906738E0,1.227857076E1
1.394871750E0,8.748257904E0,-6.626120911E0,-3.112178192E0,1.140715336E1
1.404910750E0,7.326813812E0,-7.125033417E0,-2.870730286E0,1.061552609E1
1.414950750E0,6.214177551E0,-7.364235992E0,-2.813998260E0,1.003825486E1
1.424989750E0,5.525459747E0,-7.331005096E0,-2.531086578E0,9.522643562E0
1.435028750E0,4.929249573E0,-6.901548157E0,-2.375559998E0,8.807505527E0
1.445067750E0,4.565206604E0,-5.896089020E0,-2.348017273E0,7.817810575E0
1.455106750E0,4.558769989E0,-4.367617493E0,-2.834804993E0,6.920591429E0
1.465146750E0,4.616699524E0,-2.992427216E0,-4.633314972E0,7.192784076E0
1.475185750E0,5.135370941E0,-2.223176880E0,-4.746479645E0,7.337821145E0
1.485224750E0,6.765032043E0,-2.651436310E0,-2.028581543E0,7.543932405E0
1.495263750E0,9.134155426E0,-4.440665588E0,1.278341675E0,1.023652596E1
1.505302750E0,1.145552811E1,-6.828350372E0,3.260669403E0,1.372907346E1
1.515341750E0,1.255828491E1,-8.993747406E0,2.895428925E0,1.571564574E1
1.525381750E0,1.215936447E1,-1.042282562E1,-2.637515259E-1,1.601733446E1
1.535420750E0,1.044018951E1,-1.147708328E1,-3.038681030E0,1.580995193E1
1.545459750E0,7.037764893E0,-1.084943848E1,1.451830902E0,1.301338783E1
1.555498750E0,4.410428467E0,-9.547146606E0,3.676205292E0,1.114066304E1
1.565537750E0,3.281775513E0,-8.897198181E0,3.670068054E0,1.016855867E1
1.575577750E0,3.276835785E0,-9.109606476E0,3.676504669E0,1.035563950E1
1.585616750E0,4.171375580E0,-9.819131012E0,3.720513153E0,1.129858072E1
1.595655750E0,5.284311218E0,-1.083626587E1,3.453468475E0,1.254093488E1
1.605694750E0,5.926625519E0,-1.191582092E1,3.216211853E0,1.369144612E1
1.615733750E0,5.955515442E0,-1.265303787E1,3.182831268E0,1.434217370E1
1.625772750E0,5.577551422E0,-1.314027466E1,3.244353333E0,1.463904801E1
1.635812750E0,4.968168640E0,-1.316661987E1,3.208577728E0,1.443390278E1
1.645851750E0,4.305047607E0,-1.278476395E1,2.949316864E0,1.380876874E1
1.655890750E0,3.716770935E0,-1.228764771E1,2.505789185E0,1.307974204E1
1.665929750E0,3.101849670E0,-1.164802780E1,2.070494385E0,1.223049345E1
1.675968750E0,2.695145416E0,-1.081336349E1,1.722468109E0,1.127650368E1
1.686007750E0,2.499651947E0,-1.006192612E1,1.545386353E0,1.048231062E1
1.696047750E0,2.241738281E0,-9.509125671E0,1.375040588E0,9.866083224E0
1.706086750E0,1.977238312E0,-9.020541687E0,1.121018829E0,9.302490359E0
1.716125750E0,1.728605347E0,-8.546477509E0,1.213526459E0,8.803578858E0
1.726164750E0,1.405726776E0,-8.108039246E0,1.508712616E0,8.366156939E0
1.736203750E0,9.798623657E-1,-7.695497131E0,1.785636749E0,7.960483965E0
1.746243750E0,6.363267517E-1,-7.473359070E0,2.102378082E0,7.789480157E0
1.756282750E0,3.909869385E-1,-7.357799377E0,2.339934082E0,7.730806813E0
1.766321750E0,5.354365540E-1,-7.446714478E0,2.552042999E0,7.890067952E0
1.776360750E0,1.069076843E0,-7.624394989E0,2.544109497E0,8.108441119E0
1.786399750E0,1.444945221E0,-7.818690948E0,2.175126801E0,8.243237922E0
1.796438750E0,1.426832886E0,-7.849975891E0,8.783734131E-1,8.026799700E0
1.806478750E0,1.204545135E0,-7.617958374E0,-1.450783081E0,7.847865335E0
1.816517750E0,9.313632202E-1,-7.323820038E0,-2.279160461E0,7.726600145E0
1.826556750E0,7.951464844E-1,-7.156168671E0,-1.669777679E0,7.391289838E0
1.836595750E0,9.663903809E-1,-7.169640656E0,-3.409909058E-1,7.242508702E0
1.846634750E0,1.398392029E0,-7.254514160E0,1.099613342E0,7.469446129E0
1.856673750E0,1.908830566E0,-7.514673157E0,2.282154236E0,8.082213480E0
1.866713750E0,2.298320618E0,-8.083190918E0,2.554737396E0,8.783332866E0
1.876752750E0,2.372715912E0,-8.421936493E0,2.075583801E0,8.992599358E0
1.886791750E0,2.397115173E0,-8.470735016E0,1.644929352E0,8.955741479E0
1.896830750E0,2.469115448E0,-8.385113068E0,1.430126038E0,8.857308436E0
1.906869750E0,2.797083435E0,-8.439300385E0,1.325194244E0,8.988971382E0
1.916909750E0,3.424279175E0,-8.859177246E0,1.363963623E0,9.595368993E0
1.926948750E0,4.230652313E0,-9.420060883E0,1.364113312E0,1.041617834E1
1.936987750E0,5.082680511E0,-1.006387207E1,1.230441284E0,1.134147909E1
1.947026750E0,6.478827209E0,-1.124237137E1,9.467811584E-1,1.301009264E1
1.957065750E0,8.948840790E0,-1.235695358E1,-2.294279022E0,1.542853751E1
1.967104750E0,9.840536499E0,-1.176194092E1,-8.102201385E0,1.734430973E1
1.977144750E0,8.311166840E0,-1.041010208E1,-9.875713348E0,1.658238323E1
1.987183750E0,6.058201904E0,-9.809550934E0,-7.319928131E0,1.365688280E1
1.997222750E0,4.247567139E0,-1.034468811E1,-3.681444397E0,1.177316574E1
2.007261750E0,2.744842072E0,-1.164727936E1,-1.507515106E0,1.206092352E1
2.017300750E0,1.327439575E0,-1.301019516E1,-1.147064667E0,1.312794848E1
2.027339750E0,2.550695801E-1,-1.410501846E1,-1.586700439E0,1.419627503E1
2.037379750E0,-2.740800476E-1,-1.490255997E1,-1.993853760E0,1.503784779E1
2.047418750E0,-2.501298523E-1,-1.527857803E1,-2.012265472E0,1.541255086E1
2.057457750E0,2.067201233E-1,-1.533785477E1,-1.702260132E0,1.543341218E1
2.067496750E0,9.479786682E-1,-1.557511139E1,-1.196761322E0,1.564976025E1
2.077535750E0,2.049088898E0,-1.584035980E1,-9.789642334E-1,1.600231655E1
2.087575750E0,3.351530457E0,-1.579350723E1,-1.285526733E0,1.619630224E1
2.097614750E0,4.645290070E0,-1.511167511E1,-1.753902740E0,1.590652757E1
2.107653750E0,5.414540405E0,-1.434541855E1,-1.158141632E0,1.537691689E1
2.117692750E0,5.597759399E0,-1.390742935E1,7.174580383E-1,1.500887229E1
2.127731750E0,5.374573517E0,-1.338621323E1,2.929857330E0,1.471940247E1
2.137770750E0,5.268144836E0,-1.279823593E1,4.657265167E0,1.460268167E1
2.147810750E0,5.822142792E0,-1.219693634E1,5.071004791E0,1.443529329E1
2.157849750E0,6.599775696E0,-1.175789932E1,5.010081482E0,1.438423276E1
2.167888750E0,7.405699768E0,-1.157857224E1,5.233866119E0,1.470717779E1
2.177927750E0,8.324040070E0,-1.153860535E1,5.592969360E0,1.528758852E1
2.187966750E0,9.351952515E0,-1.153980286E1,5.785469055E0,1.594044284E1
2.198006750E0,1.013512390E1,-1.142065063E1,5.510490875E0,1.623322233E1
2.208045750E0,1.024559418E1,-1.097128510E1,4.708758087E0,1.573256811E1
2.218084750E0,9.857301636E0,-1.012255005E1,3.516038361E0,1.456004604E1
2.228123750E0,9.272467804E0,-8.870254211E0,5.542973328E-1,1.284396023E1
2.238162750E0,7.980354767E0,-7.745942230E0,-1.742526398E0,1.125709028E1
2.248201750E0,6.364465027E0,-7.337292023E0,8.652008057E-1,9.751453314E0
2.258241750E0,5.169200592E0,-7.104975128E0,2.685565338E0,9.187685645E0
2.268280750E0,4.597689056E0,-6.832242279E0,2.925815735E0,8.739489512E0
2.278319750E0,4.221820679E0,-6.633305969E0,2.994672546E0,8.413832752E0
2.288358750E0,3.654799805E0,-6.621779938E0,2.994971924E0,8.134825627E0
2.298397750E0,3.096909943E0,-6.768025818E0,2.852767639E0,7.970903830E0
2.308433750E0,2.613864441E0,-6.996750183E0,2.286644897E0,7.811244800E0
2.318473750E0,2.091600494E0,-7.375462646E0,1.083297272E0,7.742465683E0
2.328512750E0,1.741328888E0,-7.774682465E0,9.235794067E-2,7.967838083E0
2.338551750E0,1.434766388E0,-7.936945038E0,-3.517684937E-2,8.065661072E0
2.348590750E0,1.355131989E0,-7.997868347E0,5.641767883E-1,8.131455974E0
2.358629750E0,1.568438416E0,-8.124804382E0,1.495540009E0,8.408869438E0
2.368669750E0,1.677561493E0,-8.236322479E0,2.217788086E0,8.693089470E0
2.378708750E0,1.655856628E0,-8.274792480E0,2.655777283E0,8.846875423E0
2.388747750E0,1.467847595E0,-8.267607422E0,2.896626434E0,8.882474528E0
2.398786750E0,1.043180695E0,-8.069718933E0,2.730172577E0,8.582682094E0
2.408825750E0,4.632865906E-1,-7.661517792E0,2.054328003E0,7.945675105E0
2.418864750E0,2.242337036E-1,-7.093598785E0,1.496438141E0,7.253189064E0
2.428904750E0,2.956352234E-1,-6.387517090E0,1.263971558E0,6.518082452E0
2.438943750E0,4.803511047E-1,-5.695955200E0,1.313368835E0,5.865115559E0
2.448982750E0,7.229965210E-1,-5.108426971E0,1.531465302E0,5.381833894E0
2.459021750E0,9.681866455E-1,-4.679119720E0,1.764380951E0,5.093582912E0
2.469060750E0,9.967771912E-1,-4.402195587E0,1.808389435E0,4.862423583E0
2.479100750E0,8.149053955E-1,-4.248465271E0,1.350791016E0,4.531905155E0
2.489139750E0,8.045768738E-1,-4.224814453E0,9.746232605E-1,4.409794962E0
2.499178750E0,1.218166809E0,-4.479734344E0,1.647324371E0,4.926015404E0
2.509217750E0,1.778002625E0,-5.107977905E0,2.527044983E0,5.969814734E0
2.519256750E0,2.496059418E0,-6.055208130E0,2.984793091E0,7.197558469E0
2.529295750E0,3.182831268E0,-7.304061127E0,1.842967529E0,8.177790236E0
2.539335750E0,2.302062836E0,-9.032217407E0,-1.257145752E1,1.564998367E1
2.549374750E0,5.302423553E0,-1.110540619E1,-3.656835571E1,3.858355066E1
2.559413750E0,1.325882812E1,-1.318398376E1,-2.430136505E1,3.066219650E1
2.569452750E0,1.743349686E1,-1.438972641E1,-1.169682632E1,2.545204874E1
2.579491750E0,1.949755463E1,-1.393242737E1,-1.195249466E1,2.677926992E1
2.589530750E0,2.039044785E1,-1.322904007E1,-1.015293686E1,2.634122228E1
2.599570750E0,1.857517273E1,-1.123818008E1,-8.386460266E0,2.327372874E1
2.609609750E0,1.542033325E1,-8.570876770E0,-6.233786774E0,1.871113849E1
2.619648750E0,1.280826508E1,-6.950646057E0,-3.468886414E0,1.497986341E1
2.629687750E0,1.131676666E1,-6.700815582E0,-4.427792358E-1,1.315926254E1
2.639726750E0,1.064795746E1,-6.674470367E0,1.996099091E0,1.272446322E1
2.649766750E0,9.711504822E0,-6.130501556E0,3.818110199E0,1.210265842E1
2.659805750E0,8.825497284E0,-4.823719025E0,5.156477051E0,1.130251844E1
2.669844750E0,6.965914307E0,-4.054319000E0,4.932393036E0,9.449336789E0
2.679883750E0,5.749693451E0,-3.901187439E0,4.558769989E0,8.310272079E0
2.689922750E0,5.203179932E0,-4.273014221E0,4.486170959E0,8.090578583E0
2.699961750E0,5.045557709E0,-5.022056580E0,4.622836761E0,8.488187357E0
2.710001750E0,4.712200928E0,-6.249504089E0,4.845723267E0,9.205551201E0
2.720040750E0,4.096680908E0,-7.612120514E0,4.357738037E0,9.680756891E0
2.730079750E0,3.839066620E0,-9.197324066E0,3.727997589E0,1.064082556E1
2.740118750E0,3.621269531E0,-1.087084396E1,3.794309692E0,1.207003014E1
2.750157750E0,2.962040405E0,-1.251846771E1,4.535568237E0,1.364027479E1
2.760196750E0,2.460433502E0,-1.389305923E1,5.021158447E0,1.497607626E1
2.770236750E0,2.133213959E0,-1.469179825E1,5.032983856E0,1.567579229E1
2.780275750E0,1.752405853E0,-1.471769440E1,4.948409729E0,1.562588281E1
2.790314750E0,1.282682648E0,-1.423988800E1,4.737797699E0,1.506208525E1
2.800353750E0,6.813830566E-1,-1.369127884E1,4.340224457E0,1.437890634E1
2.810392750E0,3.640429688E-1,-1.291199936E1,3.836671600E0,1.347487676E1
2.820432750E0,2.498304749E-1,-1.185624481E1,3.143163757E0,1.226835094E1
2.830471750E0,2.799179077E-2,-1.079435303E1,1.974543915E0,1.097349828E1
2.840510750E0,-2.005828857E-1,-9.730215912E0,6.111790466E-1,9.751455020E0
2.850549750E0,-1.993853760E-1,-8.788823547E0,-7.291337585E-1,8.821270312E0
2.860588750E0,-1.101708984E-1,-8.092920685E0,-1.423539734E0,8.217905342E0
2.870627750E0,1.929487610E-1,-7.854616241E0,-4.694238281E-1,7.870996395E0
2.880667750E0,7.566764832E-1,-8.032147064E0,6.369255066E-1,8.092812852E0
2.890706750E0,1.300345917E0,-8.304580536E0,1.202449493E0,8.491339244E0
2.900745750E0,1.725611572E0,-8.607400818E0,1.239721985E0,8.865776601E0
2.910784750E0,2.118394775E0,-8.831634521E0,6.864724731E-1,9.108051888E0
2.920823750E0,2.539918213E0,-8.989556122E0,8.607101440E-2,9.341879469E0
2.930863750E0,3.220253448E0,-8.741072845E0,-4.739144897E-1,9.327431678E0
2.940902750E0,3.483705597E0,-8.360713806E0,-2.015109558E0,9.278922705E0
2.950941750E0,3.207230530E0,-8.252339172E0,-3.661535797E0,9.580932829E0
2.960980750E0,2.998414764E0,-8.459358673E0,-3.813020782E0,9.751429011E0
2.971019750E0,2.794538727E0,-8.933422852E0,-2.844834137E0,9.783075785E0
2.981058750E0,2.569107513E0,-9.334888000E0,-1.268462219E0,9.764703979E0
2.991098750E0,2.224224701E0,-9.284293213E0,3.885919189E-1,9.554908668E0
3.001137750E0,1.754651184E0,-8.805289307E0,1.587448883E0,9.117670454E0
3.011176750E0,1.374142456E0,-8.153843994E0,2.120939484E0,8.536499497E0
3.021215750E0,1.190025330E0,-7.499554596E0,2.289638672E0,7.931073362E0
3.031254750E0,1.256936188E0,-7.065906372E0,2.456541595E0,7.585612569E0
3.041293750E0,1.695524139E0,-6.980583801E0,2.682571564E0,7.668085974E0
3.051333750E0,2.312241669E0,-7.425758057E0,2.775528259E0,8.257838783E0
3.061372750E0,2.731370087E0,-8.239166565E0,2.626587982E0,9.068804368E0
3.071411750E0,3.149899750E0,-9.382638702E0,2.445614319E0,1.019494026E1
3.081450750E0,3.564836884E0,-1.071576645E1,2.475102997E0,1.156122171E1
3.091489750E0,3.915108490E0,-1.177167068E1,2.484383698E0,1.265197485E1
3.101529750E0,4.467459869E0,-1.170011948E1,-8.358618164E-1,1.255187868E1
3.111568750E0,5.077740784E0,-1.042656784E1,-8.920399933E0,1.463114156E1
3.121607750E0,6.119274902E0,-9.350755005E0,-1.454660019E1,1.834354714E1
3.131646750E0,6.741830292E0,-9.089099121E0,-1.007015900E1,1.514833657E1
3.141685750E0,5.994434509E0,-9.670939178E0,-2.651436310E0,1.168291163E1
3.151724750E0,4.837789764E0,-1.110106522E1,1.451531525E0,1.219609784E1
3.161764750E0,3.658242645E0,-1.203542221E1,2.445314941E0,1.281458904E1
3.171803750E0,2.571502533E0,-1.250918701E1,1.867067413E0,1.290652260E1
3.181842750E0,1.670825500E0,-1.280407379E1,7.897576904E-1,1.293675696E1
3.191881750E0,9.981243896E-1,-1.261127472E1,-6.529421997E-1,1.266755051E1
3.201920750E0,8.672964478E-1,-1.199829941E1,-2.410736847E0,1.226878331E1
3.211959750E0,1.643133087E0,-1.166718796E1,-3.423231354E0,1.226954254E1
3.221999750E0,2.943778381E0,-1.194096863E1,-3.288062439E0,1.273043273E1
3.232038750E0,4.074227600E0,-1.242536133E1,-3.041375427E0,1.342530816E1
3.242077750E0,4.508624268E0,-1.283206558E1,-3.009042664E0,1.392996546E1
3.252116750E0,4.646188202E0,-1.334894073E1,-2.752625885E0,1.439993864E1
3.262155750E0,4.552632751E0,-1.406325531E1,-1.617985382E0,1.487008714E1
3.272195750E0,4.225113831E0,-1.485510864E1,8.502319336E-2,1.544451581E1
3.282234750E0,4.245770874E0,-1.541254944E1,1.641636200E0,1.607072556E1
3.292273750E0,4.613256683E0,-1.579979416E1,3.108435974E0,1.675046289E1
3.302312750E0,5.113965454E0,-1.577988556E1,4.187841339E0,1.710834434E1
3.312351625E0,6.001619568E0,-1.550026703E1,4.703668671E0,1.727432240E1
3.322390625E0,7.086264038E0,-1.494132935E1,4.882995758E0,1.724245076E1
3.332430625E0,7.828869781E0,-1.406355469E1,4.773872681E0,1.678882464E1
3.342469625E0,8.141120453E0,-1.297037796E1,4.413422241E0,1.593696466E1
3.352508625E0,8.169561310E0,-1.191192902E1,3.893703003E0,1.495983649E1
3.362547625E0,8.036488037E0,-1.103056183E1,3.066672821E0,1.398795612E1
3.372586625E0,8.177195435E0,-1.019455032E1,1.551224213E0,1.316061085E1
3.382626625E0,7.917036438E0,-9.458381195E0,2.691403198E-1,1.233745830E1
3.392665625E0,6.571484528E0,-9.065148926E0,7.203021240E-1,1.121963320E1
3.402704625E0,5.263953552E0,-8.780590668E0,1.699116669E0,1.037761904E1
3.412743625E0,4.362827454E0,-8.514893188E0,2.229912872E0,9.823959529E0
3.422782625E0,3.757336578E0,-8.339458008E0,2.437082062E0,9.465912899E0
3.432821625E0,3.296594696E0,-8.255332947E0,2.720742188E0,9.296262513E0
3.442861625E0,2.988535309E0,-8.187224579E0,3.232677612E0,9.295815948E0
3.452900625E0,2.741848297E0,-8.036488037E0,3.700005798E0,9.262446489E0
3.462939625E0,2.645748138E0,-7.783663788E0,3.744912415E0,9.033812826E0
3.472978625E0,2.708318024E0,-7.524253235E0,3.536994781E0,8.744124047E0
3.483017625E0,2.529440002E0,-7.328161011E0,2.928510132E0,8.287109395E0
3.493056625E0,1.895059204E0,-7.256609802E0,1.045126648E0,7.572445108E0
3.503096625E0,9.089099121E-1,-7.532486115E0,-2.413580933E0,7.961773497E0
3.513135625E0,5.650749207E-1,-7.718249817E0,-2.687511292E0,8.192277268E0
3.523174625E0,1.062490540E0,-7.479945374E0,-2.951861572E-1,7.560793861E0
3.533213625E0,1.414558411E0,-7.122189331E0,1.799258423E0,7.480901499E0
3.543252625E0,1.092278595E0,-6.849007416E0,3.282823334E0,7.673259031E0
3.553292625E0,5.656736755E-1,-6.572083282E0,4.448599091E0,7.956274206E0
3.563331625E0,1.115180969E-1,-6.248306580E0,5.243745575E0,8.157857504E0
3.573370625E0,-1.718426514E-1,-5.813011780E0,5.514682159E0,8.014509041E0
3.583409625E0,-1.166075134E-1,-5.257217560E0,5.175936584E0,7.378499394E0
3.593448625E0,3.647914124E-1,-4.584366760E0,4.384382629E0,6.353920239E0
3.603487625E0,7.593708801E-1,-3.891457672E0,3.939956818E0,5.589574820E0
3.613527625E0,8.364605713E-1,-3.305426331E0,3.832630005E0,5.129772146E0
3.623566625E0,9.023236084E-1,-2.789149933E0,3.814517670E0,4.810830520E0
3.633605625E0,1.114582214E0,-2.539020081E0,3.997586975E0,4.865143174E0
3.643644625E0,1.274150391E0,-2.718347168E0,3.974534912E0,4.980943516E0
3.653683625E0,1.406026154E0,-3.384911041E0,3.664080505E0,5.182665169E0
3.663723625E0,1.757046204E0,-4.413422241E0,2.973267059E0,5.604089957E0
3.673762625E0,2.133663025E0,-5.874833221E0,1.800156555E0,6.504363682E0
3.683801625E0,2.680026855E0,-8.239615631E0,-5.619164886E0,1.032709174E1
3.693840625E0,7.080126801E0,-1.220112762E1,-4.009651886E1,4.250560593E1
3.703879625E0,1.494761627E1,-1.631592087E1,-3.019805283E1,3.743745318E1
3.713918625E0,1.716690125E1,-1.739053619E1,-1.528142212E1,2.882108793E1
3.723958625E0,1.900971909E1,-1.714863922E1,-1.775772263E1,3.115737408E1
3.733997625E0,1.877710281E1,-1.577778992E1,-1.379651001E1,2.814004146E1
3.744036625E0,1.472817261E1,-1.280901352E1,-1.013003448E1,2.199107761E1
3.754075625E0,1.008827133E1,-1.007300308E1,-6.068081360E0,1.549387689E1
3.764114625E0,7.900870056E0,-8.811725922E0,-1.577569427E0,1.193980681E1
3.774153625E0,8.394992523E0,-9.060508575E0,1.266216888E0,1.241660261E1
3.784193625E0,1.023661285E1,-1.033705399E1,2.555036774E0,1.477061748E1
3.794232625E0,1.024739044E1,-1.155028107E1,2.380350037E0,1.562319013E1
3.804271625E0,6.755901031E0,-1.208616669E1,-7.454498291E-2,1.384641401E1
3.814310625E0,1.027014313E0,-1.237461685E1,-4.701573029E0,1.327745042E1
3.824349625E0,1.285826111E-1,-1.000504440E1,7.535330200E-1,1.003420445E1
3.834389625E0,2.521656189E0,-6.068530426E0,6.460415497E0,9.215355656E0
3.844428625E0,2.708916779E0,-3.939657440E0,6.003116455E0,7.674407992E0
3.854467625E0,2.302362213E0,-2.834355927E0,5.651347961E0,6.728460378E0
3.864506625E0,2.383343811E0,-2.631078644E0,6.019282837E0,6.988180623E0
3.874545625E0,3.635939026E0,-3.814517670E0,6.235583038E0,8.164134582E0
3.884584625E0,5.823190613E0,-5.924529877E0,5.734724579E0,1.009438800E1
3.894624625E0,7.605384521E0,-8.483907623E0,5.520070953E0,1.266055866E1
3.904663625E0,8.959768066E0,-1.121722366E1,6.489455109E0,1.575489061E1
3.914702625E0,8.999734955E0,-1.368933289E1,8.163873138E0,1.830414949E1
3.924741625E0,7.025191040E0,-1.505913437E1,7.188800812E0,1.810551557E1
3.934780625E0,4.535717926E0,-1.549472855E1,5.873336334E0,1.718008817E1
3.944820625E0,2.772833862E0,-1.535387146E1,5.361251221E0,1.649766623E1
3.954859625E0,1.624272308E0,-1.422506882E1,5.079986115E0,1.519200784E1
3.964898625E0,9.493258667E-1,-1.286888901E1,4.577331390E0,1.369165755E1
3.974937625E0,9.029223633E-1,-1.154459290E1,3.311713257E0,1.204409974E1
3.984976625E0,1.509461060E0,-1.019215530E1,2.099384308E0,1.051503290E1
3.995015625E0,2.013912048E0,-8.994795227E0,1.226250000E0,9.298702704E0
4.005055625E0,1.925146637E0,-7.995473328E0,-3.948788452E-1,8.233450832E0
4.015094625E0,7.117698669E-1,-6.796616364E0,-6.661746826E0,9.543557047E0
4.025133625E0,3.330574036E-1,-6.284082184E0,-6.858737183E0,9.308216363E0
4.035172625E0,4.611909485E-1,-6.984924774E0,-3.044369202E0,7.633482497E0
4.045211625E0,4.884342957E-1,-7.656128998E0,-8.470884705E-1,7.718318351E0
4.055250625E0,9.117539978E-1,-8.013136597E0,1.144819336E0,8.145689951E0
4.065290625E0,1.661694489E0,-8.262368317E0,2.568508759E0,8.810516217E0
4.075329625E0,2.041305084E0,-8.564589844E0,2.016007690E0,9.032353660E0
4.085368625E0,1.677112427E0,-8.931476898E0,6.801855469E-1,9.112992815E0
4.095407625E0,1.538650360E0,-9.268875275E0,-6.535409546E-1,9.418418634E0
4.105446625E0,1.727258148E0,-9.119336243E0,-1.920955353E0,9.478174069E0
4.115486625E0,1.760788422E0,-8.807235260E0,-3.239712982E0,9.547958368E0
4.125525625E0,1.674418030E0,-8.608748016E0,-3.979175262E0,9.630579106E0
4.135564625E0,1.679507446E0,-8.645870819E0,-3.293301544E0,9.403066656E0
4.145603625E0,1.765129395E0,-9.056167603E0,-1.476679230E0,9.344005296E0
4.155642625E0,1.832339630E0,-9.477541351E0,3.308120728E-1,9.658710846E0
4.165681625E0,1.911674652E0,-9.578281860E0,1.347647552E0,9.859722983E0
4.175721625E0,2.035467224E0,-9.260792084E0,1.684596863E0,9.630330390E0
4.185760625E0,2.177970886E0,-8.977730713E0,1.889071655E0,9.429305258E0
4.195799625E0,2.542762299E0,-9.095386047E0,2.104174347E0,9.675703444E0
4.205838625E0,3.124752045E0,-9.655820618E0,2.272723846E0,1.040020292E1
4.215877625E0,3.834725647E0,-1.049497559E1,2.543361053E0,1.145942053E1
4.225917625E0,4.592899017E0,-1.125344833E1,2.867886200E0,1.248837828E1
4.235956625E0,5.461243286E0,-1.158081757E1,2.110610962E0,1.297671732E1
4.245995625E0,6.726412354E0,-1.130688721E1,-1.366508331E0,1.322715640E1
4.256034625E0,8.150101776E0,-1.059721298E1,-7.980055389E0,1.556940480E1
4.266073625E0,8.613687744E0,-9.815837860E0,-1.252565277E1,1.809525537E1
4.276112625E0,7.029532013E0,-9.472451935E0,-9.565558319E0,1.518688816E1
4.286152625E0,4.533622284E0,-1.029933243E1,-3.649710388E0,1.183006194E1
4.296191625E0,2.550995178E0,-1.192225754E1,5.998027039E-1,1.220686547E1
4.306230625E0,1.325343933E0,-1.331271606E1,2.196382599E0,1.355761934E1
4.316269625E0,4.575984192E-1,-1.424363022E1,1.646875305E0,1.434582157E1
4.326308625E0,-2.529739380E-1,-1.476978607E1,4.263134766E-1,1.477810271E1
4.336348625E0,-7.882608032E-1,-1.462638428E1,-1.338666229E0,1.470865389E1
4.346387625E0,-6.864724731E-1,-1.376193192E1,-3.669319611E0,1.425923984E1
4.356426625E0,2.315684509E-1,-1.269405258E1,-5.411546631E0,1.380135616E1
4.366465625E0,1.496138763E0,-1.194246552E1,-5.511688385E0,1.323781034E1
4.376504625E0,2.734363861E0,-1.191626999E1,-4.219725037E0,1.293368917E1
4.386543625E0,3.803291016E0,-1.253493347E1,-2.528990936E0,1.334111595E1
4.396583625E0,3.667822723E0,-1.361044693E1,-2.134561157E-1,1.409761514E1
4.406622625E0,2.650987244E0,-1.468985229E1,2.795436859E0,1.518663758E1
4.416661625E0,2.495460663E0,-1.551224213E1,4.887336731E0,1.645427118E1
4.426700625E0,3.457360382E0,-1.598510880E1,5.225483551E0,1.716923768E1
4.436739625E0,4.903652802E0,-1.599633545E1,5.344186707E0,1.756385180E1
4.446779625E0,6.284381561E0,-1.567734879E1,5.298082581E0,1.770148004E1
4.456818625E0,7.485034790E0,-1.503293884E1,5.070555725E0,1.754210738E1
4.466857625E0,8.379873962E0,-1.404933426E1,4.878654785E0,1.707065767E1
4.476896625E0,8.891360321E0,-1.297142578E1,4.678520966E0,1.640739875E1
4.486935625E0,9.203311615E0,-1.204275696E1,4.269122314E0,1.574656614E1
4.496974625E0,9.155111847E0,-1.115255814E1,3.703298950E0,1.489664556E1
4.507014625E0,8.991502075E0,-1.027867538E1,3.103645935E0,1.400467405E1
4.517053625E0,8.753347321E0,-9.246122589E0,7.244934082E-1,1.275291194E1
4.527092625E0,7.982450409E0,-8.214018860E0,-2.994522858E0,1.183878319E1
4.537131625E0,6.508016510E0,-8.050409088E0,-1.568588104E0,1.047014011E1
4.547170625E0,5.303621063E0,-8.022716675E0,-6.376739502E-2,9.617507240E0
4.557210625E0,4.179159393E0,-7.925868073E0,1.116827545E0,9.029510602E0
4.567249625E0,3.383563843E0,-7.834408264E0,2.017205200E0,8.769012142E0
4.577288625E0,2.774480438E0,-7.629185028E0,2.079625397E0,8.380157975E0
4.587327625E0,2.339934082E0,-7.420968018E0,1.447639618E0,7.914652127E0
4.597366625E0,1.968855743E0,-7.300169220E0,1.035097504E0,7.631532639E0
4.607405625E0,1.720971222E0,-7.274123383E0,8.912466431E-1,7.527877092E0
4.617445625E0,1.524878998E0,-7.278164978E0,8.572673035E-1,7.485442448E0
4.627484625E0,1.303190002E0,-7.278614044E0,9.722282410E-1,7.457999352E0
4.637523625E0,1.127156067E0,-7.269033966E0,1.429826660E0,7.493579911E0
4.647562625E0,6.878196716E-1,-7.289092255E0,2.276016998E0,7.667086485E0
4.657601625E0,5.508544922E-2,-7.267387390E0,3.215762787E0,7.947268977E0
4.667641625E0,-3.999682617E-1,-7.208110657E0,4.119882660E0,8.312055521E0
4.677680625E0,-6.354286194E-1,-6.927294617E0,4.539160767E0,8.306332566E0
4.687719625E0,-7.884104919E-1,-6.468798065E0,4.330943756E0,7.824577518E0
4.697758625E0,-8.159532166E-1,-6.024821320E0,4.054468689E0,7.307733433E0
4.707797625E0,-6.768923950E-1,-5.528603210E0,3.848646698E0,6.770208134E0
4.717836625E0,-4.549040222E-1,-4.932542725E0,3.553011475E0,6.095966366E0
4.727876625E0,-4.816983032E-1,-4.391417999E0,3.290307770E0,5.508421781E0
4.737915625E0,-9.105564880E-1,-3.997287598E0,3.354224854E0,5.297003457E0
4.747954625E0,-9.241781616E-1,-3.619473267E0,4.098327484E0,5.545356631E0
4.757993625E0,-2.604583740E-2,-3.462599487E0,5.020260315E0,6.098629947E0
4.768032625E0,9.771679688E-1,-3.901037750E0,4.607718201E0,6.115882584E0
4.778071625E0,1.731299744E0,-4.768483887E0,3.411555634E0,6.113472763E0
4.788111625E0,2.368973694E0,-5.937852173E0,2.005679169E0,6.700214453E0
4.798150625E0,2.875370636E0,-7.609875183E0,-4.571194153E0,9.331332840E0
4.808189625E0,6.507118378E0,-1.022673340E1,-3.028951263E1,3.262488684E1
4.818228625E0,1.497785339E1,-1.249990631E1,-2.802172852E1,3.414382842E1
4.828267625E0,1.961700623E1,-1.367047211E1,-1.190549240E1,2.671047529E1
4.838307625E0,2.321088272E1,-1.538635391E1,-1.468461319E1,3.148210330E1
4.848346625E0,2.394705185E1,-1.553694077E1,-1.343785583E1,3.155049588E1
4.858385625E0,1.938424026E1,-1.348889969E1,-1.194276489E1,2.646372647E1
4.868424625E0,1.170865173E1,-1.024604324E1,-9.387728119E0,1.817149875E1
4.878463625E0,7.619155884E0,-7.170089722E0,-6.344556427E0,1.223581298E1
4.888503625E0,6.769073639E0,-5.205425262E0,-2.730771332E0,8.965150426E0
4.898542625E0,8.202193451E0,-4.843178558E0,-1.933978271E-1,9.527316447E0
4.908581625E0,1.072325089E1,-5.583838348E0,5.837860107E-1,1.210405578E1
4.918620625E0,1.196432007E1,-6.758296051E0,9.325607300E-1,1.377276986E1
4.928659625E0,1.119506973E1,-8.399483185E0,1.653910675E0,1.409313040E1
4.938698625E0,8.683742065E0,-9.728120270E0,2.247725830E0,1.323238345E1
4.948738625E0,5.881868591E0,-9.673184509E0,2.743345184E0,1.164872609E1
4.958777625E0,4.338128815E0,-8.646918640E0,3.548221436E0,1.030429226E1
4.968816625E0,3.652853851E0,-7.845335541E0,3.924688568E0,9.502410818E0
4.978855625E0,2.720143433E0,-7.228917389E0,4.653522949E0,9.017300192E0
4.988894625E0,2.412084045E0,-6.930138702E0,5.115462341E0,8.944994513E0
4.998933625E0,2.661615143E0,-7.032525787E0,5.347479858E0,9.226925542E0
5.008973625E0,3.351680145E0,-7.404502258E0,5.445076904E0,9.783111774E0
5.019012625E0,3.874991913E0,-8.314909058E0,5.632038116E0,1.076443813E1
5.029051625E0,3.975582733E0,-9.904303894E0,6.007158051E0,1.224689518E1
5.039090625E0,4.406386871E0,-1.190639053E1,7.147935791E0,1.456953557E1
5.049129625E0,4.060306549E0,-1.354757767E1,6.540798340E0,1.558220116E1
5.059169625E0,3.072660370E0,-1.435814209E1,4.740043030E0,1.542937115E1
5.069208625E0,2.349514160E0,-1.425036621E1,3.662284241E0,1.489984831E1
5.079247625E0,1.915416870E0,-1.353754852E1,2.983445892E0,1.399410559E1
5.089286625E0,1.359772339E0,-1.262818954E1,2.200573883E0,1.289041029E1
5.099325625E0,4.899311829E-1,-1.121183487E1,-1.322799225E0,1.130022440E1
5.109365625E0,-6.581813049E-1,-8.802594910E0,-8.880732422E0,1.252143315E1
5.119404625E0,5.816903687E-1,-7.604486389E0,-6.375242615E0,9.940336781E0
5.129443625E0,1.486558685E0,-7.639513550E0,-3.417543182E0,8.500095612E0
5.139482625E0,2.362986145E0,-8.112230530E0,-1.251098328E0,8.541500730E0
5.149521625E0,3.476071472E0,-8.721463623E0,2.398162994E0,9.690107654E0
5.159560625E0,4.355642395E0,-8.982820129E0,3.434008942E0,1.055722954E1
5.169600625E0,4.114194489E0,-9.541009369E0,2.347418518E0,1.065212795E1
5.179639625E0,3.486100616E0,-1.017224670E1,1.798809357E0,1.090244081E1
5.189678625E0,3.006797333E0,-1.042387344E1,1.914069672E0,1.101642549E1
5.199717625E0,2.601290588E0,-1.022778122E1,2.248025208E0,1.079017325E1
5.209756625E0,2.329904938E0,-9.444011078E0,2.338886261E0,1.000440859E1
5.219796625E0,2.211201782E0,-8.495882721E0,2.110311584E0,9.029000582E0
5.229835625E0,2.156864777E0,-7.606282654E0,1.442101135E0,8.036619759E0
5.239874625E0,2.295177155E0,-6.794820099E0,4.556524658E-1,7.186448185E0
5.249913625E0,2.618205414E0,-6.481521606E0,-1.093775482E0,7.075412831E0
5.259952625E0,2.665656738E0,-6.399641876E0,-3.016826477E0,7.560580929E0
5.269991625E0,2.608924713E0,-6.380481720E0,-4.160448303E0,8.051482175E0
5.280031625E0,2.578537903E0,-6.758595428E0,-3.494632874E0,8.033674676E0
5.290070625E0,2.460882568E0,-7.467072144E0,-1.245110779E0,7.960113709E0
5.300109625E0,2.551294556E0,-8.024512939E0,9.005273438E-1,8.468344662E0
5.310148250E0,2.899919586E0,-8.395291901E0,1.936223602E0,9.090622726E0
5.320187250E0,3.505260773E0,-8.815767517E0,2.208507385E0,9.740745088E0
5.330227250E0,4.189338226E0,-9.435329132E0,2.198328552E0,1.055502909E1
5.340266250E0,4.975353699E0,-1.015413437E1,2.251168671E0,1.152945574E1
5.350305250E0,5.809119873E0,-1.084449875E1,2.460583191E0,1.254605502E1
5.360344250E0,6.621630249E0,-1.114163086E1,2.529140625E0,1.320524432E1
5.370383250E0,7.376061401E0,-1.112756012E1,1.336570587E0,1.341697794E1
5.380422250E0,8.460705872E0,-1.063882645E1,-3.032992859E0,1.392721141E1
5.390462250E0,9.488468628E0,-9.667646027E0,-1.122231308E1,1.759075688E1
5.400501250E0,9.251810760E0,-8.622070312E0,-1.404424484E1,1.889912464E1
5.410540250E0,7.147935791E0,-8.223748627E0,-7.425308990E0,1.318553151E1
5.420579250E0,4.474944305E0,-9.323661346E0,-6.587800598E-1,1.036290397E1
5.430618250E0,2.273322601E0,-1.127784760E1,1.943258972E0,1.166765175E1
5.440658250E0,1.097517700E0,-1.263851807E1,1.528321838E0,1.277781091E1
5.450697250E0,6.218069458E-1,-1.355296646E1,6.905140686E-1,1.358478389E1
5.460736250E0,5.340893555E-1,-1.391506348E1,3.719764709E-1,1.393027672E1
5.470775250E0,4.998106384E-1,-1.406669815E1,1.561253357E-1,1.407644070E1
5.480814250E0,6.831793213E-1,-1.435245392E1,-4.890330505E-1,1.437702406E1
5.490853250E0,1.421593781E0,-1.444810501E1,-1.789828033E0,1.462778697E1
5.500893250E0,2.649190979E0,-1.423554703E1,-3.337310028E0,1.485956427E1
5.510932250E0,3.818110199E0,-1.385324203E1,-4.167184296E0,1.496180822E1
5.520971250E0,4.594994659E0,-1.364263000E1,-3.648363190E0,1.485078730E1
5.531010250E0,4.729714508E0,-1.362541580E1,-1.507365417E0,1.450152770E1
5.541049250E0,4.082909546E0,-1.354308701E1,1.731150055E0,1.425069249E1
5.551089250E0,3.785927124E0,-1.345671661E1,4.170477448E0,1.458798644E1
5.561128250E0,4.406237183E0,-1.318039124E1,4.863835602E0,1.472394431E1
5.571167250E0,5.418132935E0,-1.275647278E1,4.733307037E0,1.464540739E1
5.581206250E0,6.321204987E0,-1.226429626E1,4.589306488E0,1.454071282E1
5.591245250E0,6.944359131E0,-1.168904251E1,4.389322357E0,1.428719669E1
5.601284250E0,7.408244476E0,-1.107876160E1,4.112697601E0,1.394759213E1
5.611324250E0,7.920778656E0,-1.057086777E1,3.897445221E0,1.377214795E1
5.621363250E0,8.253536682E0,-1.027523254E1,3.659140778E0,1.367810597E1
5.631402250E0,8.466843109E0,-1.023466690E1,3.193010101E0,1.366130127E1
5.641441250E0,8.592132568E0,-1.020966888E1,2.610122223E0,1.359686798E1
5.651480250E0,9.004824371E0,-9.805958405E0,9.029223633E-1,1.334387316E1
5.661520250E0,9.579329681E0,-8.997190247E0,-1.317859497E0,1.320794243E1
5.671559250E0,8.428223419E0,-8.612490234E0,2.598596191E-1,1.205311018E1
5.681598250E0,7.064559174E0,-8.158933411E0,1.691033478E0,1.092409195E1
5.691637250E0,5.914500732E0,-7.597451019E0,2.258802795E0,9.889629466E0
5.701676250E0,4.993765411E0,-7.120093689E0,2.230361938E0,8.978192552E0
5.711715250E0,4.413871307E0,-6.780150604E0,1.773062897E0,8.282297638E0
5.721755250E0,3.944297791E0,-6.650969238E0,1.034648438E0,7.801498206E0
5.731794250E0,3.643872528E0,-6.625971222E0,5.225633240E-1,7.579866362E0
5.741833250E0,3.358565826E0,-6.627617798E0,4.791535950E-1,7.445459707E0
5.751872250E0,3.079695740E0,-6.644083557E0,5.942642212E-1,7.347211861E0
5.761911250E0,2.889890442E0,-6.703509979E0,9.933343506E-1,7.367172181E0
5.771951250E0,2.721790009E0,-6.790628815E0,1.695823517E0,7.509766837E0
5.781990250E0,2.510130157E0,-6.885830841E0,2.306553497E0,7.683463335E0
5.792029250E0,2.151475983E0,-6.913074188E0,2.888243866E0,7.794959671E0
5.802068250E0,1.553020477E0,-6.811136169E0,3.043620758E0,7.620175578E0
5.812107250E0,9.258247375E-1,-6.646777954E0,2.797981567E0,7.270867174E0
5.822146250E0,3.779640198E-1,-6.427933044E0,2.454445953E0,6.890971264E0
5.832186250E0,-1.477427673E-1,-6.283633118E0,2.316432953E0,6.698636780E0
5.842225250E0,-6.412664795E-1,-6.111042023E0,2.340981903E0,6.575428014E0
5.852264250E0,-9.375004578E-1,-5.895190887E0,2.496358795E0,6.470238786E0
5.862303250E0,-9.610015869E-1,-5.588029633E0,2.322719879E0,6.127367042E0
5.872342250E0,-7.241940308E-1,-5.239703979E0,2.093546448E0,5.688751314E0
5.882382250E0,-3.921844482E-2,-4.920118561E0,2.928061066E0,5.725613185E0
5.892421250E0,9.349557495E-1,-4.977149963E0,4.095483398E0,6.512998409E0
5.902460250E0,1.979483643E0,-5.510341187E0,4.305197296E0,7.267526350E0
5.912499250E0,2.568359070E0,-6.267017670E0,3.502266998E0,7.624818222E0
5.922538250E0,3.049159241E0,-7.145091705E0,2.034269714E0,8.030439641E0
5.932577250E0,3.219654694E0,-8.404871979E0,-7.042554932E0,1.142828199E1
5.942617250E0,6.792275391E0,-9.504036255E0,-3.413785995E1,3.608123047E1
5.952656250E0,1.410337189E1,-1.045291306E1,-2.276361282E1,2.874631383E1
5.962695250E0,1.777134430E1,-1.117860397E1,-1.006551865E1,2.328296653E1
5.972734250E0,2.065494781E1,-1.137589371E1,-1.329939377E1,2.707234200E1
5.982773250E0,2.243040573E1,-1.099284027E1,-1.279808624E1,2.806700287E1
5.992813250E0,2.065509750E1,-9.438173218E0,-9.942474518E0,2.479042085E1
6.002852250E0,1.597433121E1,-7.184010773E0,-7.401658173E0,1.901509432E1
6.012891250E0,1.175280991E1,-5.087021484E0,-5.119653625E0,1.379192450E1
6.022930250E0,9.451645203E0,-3.664828949E0,-2.028431854E0,1.033823505E1
6.032969250E0,8.446635132E0,-3.354075165E0,1.011147308E0,9.144281499E0
6.043009250E0,9.906249847E0,-3.701652374E0,2.436782684E0,1.085236961E1
6.053048250E0,1.153501282E1,-4.543202362E0,2.011517029E0,1.255959431E1
6.063087250E0,1.028346542E1,-6.116131439E0,2.750380554E0,1.227686108E1
6.073126250E0,7.411986694E0,-7.996820526E0,5.362748108E0,1.215095686E1
6.083165250E0,5.207969971E0,-9.262139282E0,5.708678741E0,1.206230443E1
6.093204250E0,4.195924530E0,-1.027074188E1,4.555177460E0,1.199348003E1
6.103244250E0,4.493505707E0,-1.113444580E1,3.229683838E0,1.243375786E1
6.113283250E0,4.987927551E0,-1.144310394E1,2.586770782E0,1.274815407E1
6.123322250E0,4.949307861E0,-1.147828079E1,2.889890442E0,1.282957696E1
6.133361250E0,4.535119171E0,-1.161330002E1,3.476819916E0,1.294311863E1
6.143400250E0,3.730093231E0,-1.179217804E1,3.992497559E0,1.299650319E1
6.153439250E0,3.034938812E0,-1.188199127E1,4.296964417E0,1.299447857E1
6.163479250E0,2.239492950E0,-1.166000290E1,4.365372162E0,1.265019646E1
6.173518250E0,1.551673279E0,-1.126617188E1,4.218527527E0,1.212972766E1
6.183557250E0,1.038540344E0,-1.115166000E1,4.188889160E0,1.195762850E1
6.193596250E0,7.902067566E-1,-1.124491608E1,4.475393372E0,1.212854938E1
6.203635250E0,6.107299805E-1,-1.156270523E1,4.584516449E0,1.245339048E1
6.213675250E0,3.046165466E-1,-1.192734695E1,4.052223358E0,1.260059168E1
6.223714250E0,-1.496887207E-2,-1.210607529E1,3.406765594E0,1.257630052E1
6.233753250E0,-2.354603577E-1,-1.182765427E1,2.575095062E0,1.210702117E1
6.243792250E0,-6.694079590E-1,-1.091440338E1,-1.356179810E-1,1.093575331E1
6.253831250E0,-9.894424438E-1,-9.354197845E0,-4.860841827E0,1.058809695E1
6.263870250E0,1.173559570E-1,-7.788004761E0,-6.607559509E0,1.021404098E1
6.273910250E0,1.861678619E0,-7.082072754E0,-4.936284943E0,8.831110395E0
6.283949250E0,3.573069763E0,-7.248825989E0,-2.311044159E0,8.405547624E0
6.293988250E0,4.694238281E0,-7.954907684E0,-2.944377136E-1,9.241381005E0
6.304027250E0,4.630171509E0,-8.901988220E0,3.309617615E-1,1.003959253E1
6.314066458E0,3.911815338E0,-9.514514465E0,4.333488464E-1,1.029641083E1
6.324106458E0,3.492986298E0,-9.761949921E0,7.846682739E-1,1.039770762E1
6.334145458E0,3.217708740E0,-9.698631592E0,1.369352417E0,1.030981233E1
6.344184458E0,2.887495422E0,-9.207203522E0,2.007625122E0,9.856002493E0
6.354223458E0,2.539918213E0,-8.700357513E0,2.261197815E0,9.341328650E0
6.364262458E0,2.372117157E0,-8.430319061E0,2.045945435E0,8.993503878E0
6.374301458E0,2.285297699E0,-8.182733917E0,1.663640442E0,8.657217766E0
6.384341458E0,2.135908356E0,-8.054151306E0,1.408720551E0,8.450795901E0
6.394380458E0,2.114951935E0,-7.830516357E0,1.171014862E0,8.195198833E0
6.404419458E0,2.300565948E0,-7.525450745E0,9.639953613E-1,7.928070361E0
6.414458458E0,2.581980743E0,-7.177873535E0,8.484356689E-1,7.675176619E0
6.424497458E0,3.214116211E0,-7.031627655E0,7.725434875E-1,7.769887640E0
6.434537458E0,4.346810760E0,-7.269183655E0,3.823049927E-1,8.478322470E0
6.444576458E0,5.520070953E0,-7.837252350E0,-8.083190918E-2,9.586461366E0
6.454615458E0,6.283184052E0,-8.474177856E0,-9.056167603E-2,1.054980064E1
6.464654458E0,6.764283600E0,-8.968150635E0,3.014730835E-1,1.123717689E1
6.474693458E0,7.285799103E0,-9.284742279E0,9.852511597E-1,1.184314264E1
6.484732458E0,7.853418732E0,-9.451645203E0,1.605112152E0,1.239298866E1
6.494772458E0,8.415799255E0,-9.519753571E0,1.151705017E0,1.275844072E1
6.504811458E0,8.858728180E0,-9.533524933E0,-1.072669373E0,1.305816917E1
6.514850458E0,8.846753082E0,-9.598938904E0,-4.589306488E0,1.383713851E1
6.524889458E0,7.718848572E0,-9.810598755E0,-7.759863281E0,1.469843357E1
6.534928458E0,5.895789642E0,-1.002495300E1,-7.470964050E0,1.382299975E1
6.544968458E0,4.417613525E0,-1.005668701E1,-4.247567139E0,1.177684548E1
6.555007458E0,3.239563293E0,-1.052880524E1,-1.578766937E0,1.112847766E1
6.565046458E0,2.308948517E0,-1.118159775E1,-5.525010681E-1,1.143086300E1
6.575085458E0,1.912722473E0,-1.168859344E1,-1.983375549E-1,1.184571913E1
6.585124458E0,1.878443756E0,-1.214080307E1,6.391708374E-2,1.228542777E1
6.595163458E0,1.944306793E0,-1.252295837E1,2.853067017E-1,1.267620666E1
6.605203458E0,1.867067413E0,-1.284119659E1,1.697470093E-1,1.297732965E1
6.615242458E0,1.852098541E0,-1.304597076E1,-6.718029785E-1,1.319389789E1
6.625281458E0,2.157164154E0,-1.309372147E1,-2.106419678E0,1.343636494E1
6.635320458E0,2.537373505E0,-1.273851013E1,-3.880081329E0,1.355591885E1
6.645359458E0,2.896027679E0,-1.177256882E1,-5.157824249E0,1.317510925E1
6.655398458E0,3.285068665E0,-1.083866089E1,-4.821922760E0,1.230931294E1
6.665438458E0,3.554957428E0,-1.089120163E1,-2.864143982E0,1.180928939E1
6.675477458E0,2.988684998E0,-1.205084015E1,1.609153748E-1,1.241695937E1
6.685516458E0,2.524500275E0,-1.336510712E1,2.548749847E0,1.383818325E1
6.695555458E0,2.954106903E0,-1.395458130E1,3.829037476E0,1.476883932E1
6.705594458E0,3.781137085E0,-1.414049469E1,4.381688232E0,1.527906344E1
6.715634458E0,4.277055817E0,-1.426817917E1,4.694986725E0,1.561784376E1
6.725673458E0,4.840334473E0,-1.432730621E1,4.537963257E0,1.578903581E1
6.735712458E0,5.169649658E0,-1.454405548E1,4.049528961E0,1.595786678E1
6.745751458E0,5.624703369E0,-1.457204727E1,3.623514862E0,1.603470329E1
6.755790458E0,6.091582489E0,-1.431772614E1,3.755839691E0,1.600659210E1
6.765830458E0,6.226152649E0,-1.377839767E1,4.005520477E0,1.564140063E1
6.775869458E0,6.202801208E0,-1.296708481E1,2.997666321E0,1.468352937E1
6.785908458E0,5.951473846E0,-1.196551758E1,-1.905387726E0,1.349904272E1
6.795947458E0,4.923411713E0,-1.088521408E1,-2.925516357E0,1.229985831E1
6.805986458E0,3.882476349E0,-1.019993912E1,-8.512797546E-1,1.094701136E1
6.816025458E0,3.103346558E0,-9.764794006E0,7.081773376E-1,1.027051493E1
6.826065458E0,2.598296814E0,-9.319170685E0,1.305884399E0,9.762347190E0
6.836104458E0,2.262095947E0,-8.712033234E0,1.021775208E0,9.058732015E0
6.846143458E0,2.079475708E0,-8.026758270E0,4.314028931E-1,8.302961881E0
6.856182458E0,1.877994690E0,-7.630232849E0,2.095642090E-1,7.860740076E0
6.866221458E0,1.513352966E0,-7.590565338E0,8.728349304E-1,7.789015353E0
6.876260458E0,8.711883545E-1,-7.828869781E0,1.970951385E0,8.120025897E0
6.886300458E0,-6.227050781E-2,-8.013136597E0,2.997666321E0,8.555713828E0
6.896339458E0,-8.857081604E-1,-8.167166290E0,3.194956055E0,8.814466992E0
6.906378458E0,-1.570534058E0,-8.519832916E0,2.088157654E0,8.911483184E0
6.916417458E0,-2.144739990E0,-9.116342468E0,5.231620789E-1,9.379835190E0
6.926456458E0,-1.783990173E0,-9.308842163E0,4.924758911E-2,9.478374791E0
6.936496458E0,-6.976991272E-1,-9.238189087E0,5.602848816E-1,9.281424504E0
6.946535458E0,5.465135193E-1,-9.054670715E0,2.020198975E0,9.293381660E0
6.956574458E0,1.156794434E0,-9.152866516E0,3.532504120E0,9.878852372E0
6.966613458E0,1.870210876E0,-8.886570282E0,4.419858856E0,1.009970160E1
6.976652458E0,2.565065918E0,-8.195307770E0,4.667893066E0,9.774040019E0
6.986691458E0,3.265609131E0,-7.243137817E0,4.457430725E0,9.110210596E0
6.996731458E0,3.898043976E0,-6.224206696E0,4.023034058E0,8.373786411E0
7.006770458E0,4.106859741E0,-5.532495117E0,3.916755066E0,7.925640000E0
7.016809458E0,4.093687134E0,-5.019811249E0,3.910468140E0,7.566276521E0
7.026848458E0,4.071533203E0,-4.596341858E0,3.708088989E0,7.173121012E0
7.036887458E0,4.108206940E0,-4.382586365E0,3.536994781E0,6.970994161E0
7.046927458E0,4.397555237E0,-4.441264343E0,3.408561859E0,7.119102119E0
7.056966458E0,5.135520630E0,-4.747976532E0,3.465593262E0,7.805587098E0
7.067005458E0,6.437962189E0,-5.445076904E0,3.828289032E0,9.260238472E0
7.077044458E0,8.196804657E0,-6.619833984E0,3.914958801E0,1.123996045E1
7.087083458E0,1.035606445E1,-8.031398621E0,3.433260498E0,1.354764601E1
7.097122458E0,1.298489777E1,-9.210197296E0,1.813628540E0,1.602262627E1
7.107162458E0,1.621682693E1,-9.944270782E0,-4.902006226E0,1.964443082E1
7.117201458E0,1.998374359E1,-1.003617966E1,-3.022035645E1,3.759447903E1
7.127240458E0,2.119457565E1,-1.125000549E1,-2.975706985E1,3.822637659E1
7.137279458E0,1.953093521E1,-1.262609390E1,-1.798674637E1,2.940065854E1
7.147318458E0,1.622520950E1,-1.231249603E1,-1.493519211E1,2.525697815E1
7.157357458E0,1.191133026E1,-1.025532394E1,-1.092712692E1,1.914297679E1
7.167397458E0,8.417146454E0,-7.436535645E0,-7.503147125E0,1.350731778E1
7.177436458E0,6.732250214E0,-6.064937897E0,-5.523214417E0,1.061190662E1
7.187475458E0,6.057154083E0,-6.477180634E0,-4.873715057E0,1.011909497E1
7.197514458E0,5.981112213E0,-8.118367767E0,-5.606591034E0,1.153756740E1
7.207553458E0,6.387367401E0,-9.623338165E0,-4.117487640E0,1.226216964E1
7.217593458E0,6.842421112E0,-1.050575317E1,2.329156494E-1,1.253969003E1
7.227632458E0,6.898255005E0,-1.098116455E1,3.216810608E0,1.336112898E1
7.237671458E0,6.067632294E0,-1.117366425E1,3.777095490E0,1.326398826E1
7.247710458E0,4.614154816E0,-1.009081604E1,4.204905853E0,1.186575856E1
7.257749458E0,3.111429749E0,-8.108937378E0,5.040617981E0,1.004209590E1
7.267788458E0,2.241738281E0,-6.486760712E0,5.334007874E0,8.692243384E0
7.277828458E0,2.063908081E0,-5.501808929E0,5.545967102E0,8.080059973E0
7.287867458E0,1.736987915E0,-5.326673126E0,5.998476105E0,8.208062450E0
7.297906458E0,1.361418915E0,-5.858966217E0,6.537804565E0,8.883908775E0
7.307949833E0,1.273252258E0,-6.891519012E0,7.203470306E0,1.005008408E1
7.317988833E0,1.733545074E0,-8.350085907E0,7.453899536E0,1.132650570E1
7.328028833E0,2.521656189E0,-9.888436890E0,6.844965820E0,1.228794088E1
7.338067833E0,2.470612335E0,-1.136062546E1,6.188431091E0,1.317058903E1
7.348106833E0,2.103575592E0,-1.247730331E1,5.546565857E0,1.381566217E1
7.358145833E0,1.403032379E0,-1.306004150E1,5.062322845E0,1.407694202E1
7.368184833E0,7.949967957E-1,-1.300645294E1,4.534071350E0,1.379701566E1
7.378223833E0,5.209167480E-1,-1.259974869E1,3.749702454E0,1.315618827E1
7.388263833E0,3.909869385E-1,-1.210622498E1,2.999163208E0,1.247832256E1
7.398302833E0,4.505630493E-1,-1.162467636E1,2.413880310E0,1.188120052E1
7.408341833E0,6.339317322E-1,-1.107501938E1,1.647174683E0,1.121477187E1
7.418380833E0,1.148112488E0,-9.941875763E0,-3.743714905E0,1.068524484E1
7.428419833E0,2.665507050E0,-8.267607422E0,-8.068222046E0,1.185556693E1
7.438459833E0,3.717818756E0,-7.569159851E0,-4.648433533E0,9.629241479E0
7.448498833E0,4.258943481E0,-7.614665222E0,-3.022664337E0,9.233538093E0
7.458537833E0,4.244273987E0,-8.452922058E0,-1.703607330E0,9.610828837E0
7.468576833E0,3.709436188E0,-9.521849213E0,-4.237687683E-1,1.022766392E1
7.478615833E0,3.260070648E0,-1.025457550E1,6.164181519E-1,1.077795670E1
7.488654833E0,2.749781799E0,-1.044932053E1,1.573527832E0,1.091904708E1
7.498694833E0,2.628983002E0,-1.017703674E1,2.325114899E0,1.076521192E1
7.508733833E0,2.945125580E0,-9.649982758E0,2.716999969E0,1.044882868E1
7.518772833E0,3.151995392E0,-9.142238617E0,3.069367218E0,1.014576843E1
7.528811833E0,3.248843994E0,-8.562643890E0,3.396137695E0,9.767681861E0
7.538850833E0,3.303330688E0,-8.001161499E0,3.685485992E0,9.408155291E0
7.548889833E0,3.565585327E0,-7.486531677E0,4.056414642E0,9.231254250E0
7.558929833E0,4.161047058E0,-7.033872986E0,4.193379822E0,9.185538424E0
7.568968833E0,4.731211395E0,-6.727759552E0,3.917802887E0,9.110229927E0
7.579007833E0,5.435796204E0,-6.439908142E0,3.604803772E0,9.165964624E0
7.589046833E0,6.150410156E0,-6.105802917E0,3.305126953E0,9.275356518E0
7.599085833E0,6.854246521E0,-5.814209290E0,2.796634369E0,9.413123224E0
7.609125833E0,7.507637787E0,-5.772146759E0,2.041903839E0,9.687707398E0
7.619164833E0,8.346493378E0,-6.119125214E0,1.116378479E0,1.040932015E1
7.629203833E0,9.366921387E0,-6.879543915E0,3.035687256E-1,1.162581157E1
7.639242833E0,1.028451324E1,-7.914192352E0,-2.275268555E-1,1.297911483E1
7.649281833E0,1.054242691E1,-8.945697327E0,-4.433779907E-1,1.383346847E1
7.659321833E0,9.126072235E0,-9.726174316E0,-7.779322815E-1,1.335997155E1
7.669360833E0,6.800358582E0,-1.010174332E1,-1.456022186E0,1.226417936E1
7.679399833E0,4.905299377E0,-1.059227325E1,-2.496209106E0,1.193688714E1
7.689438833E0,3.174299011E0,-1.120899078E1,-3.855382690E0,1.227117045E1
7.699477833E0,1.933229828E0,-1.167317551E1,-4.694387970E0,1.272940228E1
7.709516833E0,1.569037170E0,-1.170206543E1,-3.912863159E0,1.243827605E1
7.719556833E0,1.982178040E0,-1.159473862E1,-2.101479950E0,1.194919292E1
7.729595833E0,2.455942841E0,-1.177975388E1,-6.957531738E-1,1.205314602E1
7.739634833E0,2.746338959E0,-1.230201782E1,1.796264648E-3,1.260484127E1
7.749673833E0,2.805915070E0,-1.288176224E1,1.312770081E-1,1.318446781E1
7.759712833E0,2.656076660E0,-1.329834595E1,-4.340972900E-2,1.356107048E1
7.769751833E0,2.456391907E0,-1.373034760E1,-2.758763123E-1,1.395107215E1
7.779791833E0,2.373913422E0,-1.422881104E1,-4.580474854E-1,1.443275219E1
7.789830833E0,2.262545013E0,-1.443553116E1,-5.496569824E-1,1.462209946E1
7.799869833E0,2.294877777E0,-1.405427399E1,-6.248007202E-1,1.425410317E1
7.809908833E0,2.989882507E0,-1.344878311E1,-9.128018188E-1,1.380733036E1
7.819947833E0,4.291276245E0,-1.271650589E1,-1.492695923E0,1.350380372E1
7.829987833E0,5.449567566E0,-1.184456909E1,-2.100731506E0,1.320623627E1
7.840026833E0,6.040987701E0,-1.094538895E1,-2.740800476E0,1.279871317E1
7.850065833E0,6.179749146E0,-1.026056305E1,-3.582350464E0,1.250206737E1
7.860104833E0,5.544769592E0,-1.017628830E1,-2.219135284E0,1.179940146E1
7.870143833E0,4.278702393E0,-1.069989944E1,3.727249146E-1,1.152970365E1
7.880182833E0,3.077300720E0,-1.132095795E1,2.281555481E0,1.195154233E1
7.890222833E0,2.590363312E0,-1.181702637E1,3.587439880E0,1.261831285E1
7.900261833E0,2.815944214E0,-1.213571365E1,4.301305389E0,1.317976918E1
7.910300833E0,3.300785980E0,-1.227492416E1,4.325704651E0,1.342686382E1
7.920339833E0,3.821253662E0,-1.220771393E1,4.073928223E0,1.342487058E1
7.930378833E0,4.177812195E0,-1.192914322E1,3.652255096E0,1.315665383E1
7.940418833E0,4.448599091E0,-1.185759201E1,2.510728912E0,1.291109143E1
7.950457833E0,4.702321472E0,-1.204709793E1,-1.137634277E-2,1.293230549E1
7.960496833E0,5.032534790E0,-1.196491882E1,-1.303788757E0,1.304551854E1
7.970535833E0,5.026547241E0,-1.150836823E1,-4.179309082E-1,1.256516544E1
7.980574833E0,4.800068207E0,-1.086904770E1,8.764274597E-1,1.191406638E1
7.990613833E0,4.742288361E0,-1.020637573E1,1.731599121E0,1.138673966E1
8.000653833E0,4.626578979E0,-9.792935486E0,2.254012756E0,1.106288353E1
8.010692833E0,4.317172394E0,-9.466015320E0,2.883154449E0,1.079611055E1
8.020731833E0,3.777544556E0,-8.968000946E0,3.239563293E0,1.025620077E1
8.030770833E0,3.287164307E0,-8.525221710E0,2.939886475E0,9.598322086E0
8.040809833E0,3.036286011E0,-8.152347107E0,2.367327118E0,9.015765845E0
8.050849833E0,2.944826202E0,-7.883805542E0,1.886676636E0,8.624728397E0
8.060888833E0,2.887944489E0,-7.727530518E0,1.460812225E0,8.377883004E0
8.070927833E0,2.952460327E0,-7.442074127E0,1.350791016E0,8.119490481E0
8.080966833E0,2.877466278E0,-7.244784393E0,1.537303162E0,7.945439830E0
8.091005833E0,2.794987793E0,-7.170389099E0,1.768422546E0,7.896439381E0
8.101044833E0,2.816842346E0,-7.248077545E0,1.979184265E0,8.024113612E0
8.111084833E0,2.979853363E0,-7.337591400E0,1.987716522E0,8.165218343E0
8.121123833E0,3.167862396E0,-7.433092804E0,2.011666718E0,8.326645410E0
8.131162833E0,3.225492554E0,-7.630232849E0,2.273322601E0,8.590241626E0
8.141201833E0,3.121758270E0,-7.824079742E0,2.627785492E0,8.824219802E0
8.151240833E0,2.976859589E0,-7.826175385E0,2.960094452E0,8.881040104E0
8.161280833E0,2.733914795E0,-7.503745880E0,3.390748901E0,8.676270538E0
8.171319833E0,2.671045532E0,-6.825655975E0,3.743714905E0,8.230398837E0
8.181358833E0,2.757864990E0,-6.002667389E0,3.673810272E0,7.558751021E0
8.191397833E0,2.730921021E0,-5.203928375E0,3.235521698E0,6.708755534E0
8.201436833E0,2.582729187E0,-4.516557770E0,3.101849670E0,6.057330726E0
8.211475833E0,2.542762299E0,-4.180805969E0,3.369044037E0,5.940979413E0
8.221515833E0,2.802322540E0,-4.177363129E0,3.551963654E0,6.157907122E0
8.231554833E0,3.214116211E0,-4.556374969E0,3.357667694E0,6.508842311E0
8.241593833E0,3.877237244E0,-5.335355072E0,2.915187836E0,7.210915511E0
8.251632833E0,4.769232330E0,-6.618486786E0,1.989213409E0,8.396839545E0
8.261671833E0,5.680686951E0,-8.128845978E0,-1.884730682E0,1.009458027E1
8.271710833E0,9.074429626E0,-9.303004303E0,-1.984004242E1,2.371747131E1
8.281750833E0,1.533800446E1,-1.103864502E1,-2.771875854E1,3.354751317E1
8.291789833E0,1.998060013E1,-1.334175568E1,-2.260224838E1,3.298618587E1
8.301828833E0,2.178674423E1,-1.414782944E1,-1.841276047E1,3.184105919E1
8.311863875E0,2.085702759E1,-1.240724899E1,-1.159024796E1,2.689403791E1
8.321902875E0,1.682740723E1,-9.292526093E0,-6.136489105E0,2.017843338E1
8.331942875E0,1.206895248E1,-7.498357086E0,-1.155447235E0,1.425552634E1
8.341981875E0,9.986632690E0,-8.196056213E0,2.174677734E0,1.310104550E1
8.352020875E0,8.957971802E0,-9.358239441E0,3.814817047E0,1.350461896E1
8.362059875E0,7.173233185E0,-9.207502899E0,4.135150909E0,1.238276451E1
8.372098875E0,4.778662720E0,-8.138126678E0,4.382885742E0,1.040549906E1
8.382138875E0,3.681294708E0,-7.127278748E0,5.192102966E0,9.555520200E0
8.392177875E0,3.039429474E0,-6.758445740E0,5.654192047E0,9.321191343E0
8.402216875E0,2.322121124E0,-6.663543091E0,5.177283783E0,8.752103770E0
8.412255875E0,1.730850677E0,-6.670279083E0,4.567451935E0,8.267410979E0
8.422294875E0,1.211281128E0,-6.782994690E0,4.400399323E0,8.175557053E0
8.432333875E0,4.643344116E-1,-6.949897614E0,4.573439484E0,8.332648558E0
8.442373875E0,-4.845423889E-1,-7.222780151E0,5.095853119E0,8.852742708E0
8.452412875E0,-1.208287354E0,-7.716603241E0,5.602100372E0,9.611943221E0
8.462451875E0,-1.065634003E0,-8.260272675E0,5.672903137E0,1.007717770E1
8.472490875E0,6.017486572E-2,-8.989705811E0,5.174439697E0,1.037271699E1
8.482529875E0,9.683363342E-1,-9.951904907E0,4.214635620E0,1.085086356E1
8.492569875E0,1.410516815E0,-1.092922256E1,3.372037811E0,1.152423978E1
8.502608875E0,1.524280243E0,-1.178080170E1,2.484533386E0,1.213604652E1
8.512647875E0,1.230141907E0,-1.256487122E1,1.553619232E0,1.272017966E1
8.522686875E0,8.684939575E-1,-1.265228943E1,-2.534230042E-1,1.268459431E1
8.532725875E0,6.096821594E-1,-1.153291718E1,-6.012546844E0,1.302039210E1
8.542764875E0,1.068927155E0,-1.024873764E1,-4.863985291E0,1.139462950E1
8.552804875E0,1.315614166E0,-9.446855164E0,-1.109043732E0,9.602285723E0
8.562843875E0,1.716181183E0,-8.929680634E0,2.302062836E0,9.379976939E0
8.572882875E0,2.618654480E0,-8.824599152E0,3.759581909E0,9.943106034E0
8.582921875E0,3.530707855E0,-9.136251068E0,3.134631500E0,1.028410892E1
8.592960875E0,3.536845093E0,-9.646839294E0,2.261796570E0,1.052076543E1
8.603000875E0,3.468137970E0,-9.956545258E0,1.734293518E0,1.068496834E1
8.613039875E0,3.443888397E0,-9.912686462E0,1.473086700E0,1.059677803E1
8.623078875E0,3.317102051E0,-9.671537933E0,1.444196777E0,1.032606006E1
8.633117875E0,3.398981781E0,-9.296268311E0,1.611997833E0,1.002857012E1
8.643156875E0,3.573967896E0,-8.918004913E0,1.816622314E0,9.777738736E0
8.653195875E0,3.485501862E0,-8.553662567E0,2.001936951E0,9.451011485E0
8.663235875E0,3.646566925E0,-8.064180450E0,2.241738281E0,9.129832813E0
8.673274875E0,3.923491058E0,-7.777376862E0,1.968256989E0,8.930588363E0
8.683313875E0,4.244273987E0,-7.833061066E0,1.222358093E0,8.992489457E0
8.693352875E0,4.719685364E0,-7.929610291E0,2.700384521E-1,9.231850847E0
8.703391875E0,5.213508453E0,-7.897576904E0,-8.548722839E-1,9.501747101E0
8.713431875E0,5.648054810E0,-7.773784332E0,-1.837578735E0,9.783094683E0
8.723470875E0,5.932014313E0,-7.725883942E0,-2.363884277E0,1.002327418E1
8.733509875E0,6.104006653E0,-7.924969940E0,-2.160157928E0,1.023378366E1
8.743548875E0,6.278843079E0,-8.500672760E0,-1.065634003E0,1.062171755E1
8.753587875E0,6.252348175E0,-9.315428467E0,1.190025330E-1,1.121976946E1
8.763627875E0,6.002667389E0,-9.716294861E0,5.249583435E-1,1.143302160E1
8.773666875E0,5.593717804E0,-9.617949371E0,-9.071136475E-2,1.112667325E1
8.783705875E0,5.099745026E0,-9.525142365E0,-1.162482605E0,1.086678896E1
8.793744875E0,4.581372986E0,-9.552535400E0,-1.981579285E0,1.077805954E1
8.803783875E0,4.256099396E0,-9.735754395E0,-2.385888519E0,1.088998438E1
8.813822875E0,3.947141876E0,-9.867330780E0,-2.595303040E0,1.093982375E1
8.823862875E0,3.104095001E0,-9.869576111E0,-3.107537842E0,1.080281120E1
8.833901875E0,2.059567108E0,-1.034783157E1,-3.290307770E0,1.105194825E1
8.843940875E0,1.208137665E0,-1.144265488E1,-2.507884827E0,1.177639306E1
8.853979875E0,7.232958984E-1,-1.267459305E1,-1.291065216E0,1.276069415E1
8.864018875E0,2.541714478E-1,-1.374501709E1,-5.116360474E-1,1.375688444E1
8.874057875E0,-2.538720703E-1,-1.439331894E1,-2.284249878E-1,1.439736987E1
8.884097875E0,-6.502478027E-1,-1.469404358E1,-2.911445618E-1,1.471130531E1
8.894136875E0,-1.058598633E0,-1.481559082E1,-8.982820129E-1,1.488049976E1
8.904175875E0,-8.047265625E-1,-1.478116241E1,-2.182760925E0,1.496311440E1
8.914214875E0,4.938230896E-1,-1.466545303E1,-3.621419220E0,1.511403490E1
8.924253875E0,1.953437805E0,-1.437146439E1,-4.425097961E0,1.516365391E1
8.934293875E0,3.365601196E0,-1.420605835E1,-3.984264679E0,1.513319960E1
8.944332875E0,4.452640686E0,-1.431054108E1,-2.898422699E0,1.526494183E1
8.954371875E0,4.828059998E0,-1.422447006E1,-4.191284180E-1,1.502735441E1
8.964410875E0,4.454886017E0,-1.425530594E1,3.337609406E0,1.530357453E1
8.974449875E0,4.675826569E0,-1.403256912E1,4.800966339E0,1.555074365E1
8.984489875E0,5.424120483E0,-1.333352280E1,5.015021210E0,1.524317391E1
8.994528875E0,6.293362885E0,-1.272099655E1,5.334007874E0,1.516185377E1
9.004567875E0,7.270231476E0,-1.234827164E1,5.329517212E0,1.528855231E1
9.014606875E0,8.059839478E0,-1.202434525E1,5.108277283E0,1.535058265E1
9.024645875E0,8.843160553E0,-1.171838150E1,4.930896149E0,1.548662941E1
9.034684875E0,9.624835052E0,-1.158800262E1,5.132676544E0,1.591425848E1
9.044724875E0,1.035022659E1,-1.140388550E1,5.285508728E0,1.628227249E1
9.054763875E0,1.052326675E1,-1.112815887E1,3.783083038E0,1.577614593E1
9.064802875E0,1.095526840E1,-1.017823425E1,-7.476951599E-1,1.497242152E1
9.074841875E0,1.045740372E1,-9.145382080E0,-2.093845825E0,1.404918134E1
9.084880875E0,9.152267761E0,-8.326584778E0,1.499880981E-1,1.237410666E1
9.094920875E0,7.875872040E0,-7.392227783E0,1.724563751E0,1.093839623E1
9.104959875E0,6.625821533E0,-6.463259583E0,2.511776733E0,9.590842392E0
9.114998875E0,5.382057953E0,-5.889053650E0,2.430645447E0,8.339996282E0
9.125037875E0,4.419409790E0,-5.596262512E0,1.634002075E0,7.315688606E0
9.135076875E0,3.948938141E0,-5.539979553E0,4.739144897E-1,6.819829971E0
9.145115875E0,3.800596619E0,-5.607339478E0,-8.247848511E-2,6.774481041E0
9.155155875E0,3.563339996E0,-5.751938782E0,-1.146615601E-1,6.767225351E0
9.165194875E0,3.340004425E0,-6.110143890E0,-8.996292114E-2,6.964020480E0
9.175233875E0,3.120560760E0,-6.480024719E0,1.755848694E-1,7.194404066E0
9.185272875E0,2.722538452E0,-6.921606445E0,5.623805237E-1,7.459029646E0
9.195311875E0,2.352058868E0,-7.418123932E0,7.994874573E-1,7.823038015E0
9.205351875E0,1.853146362E0,-7.882458344E0,1.212628326E0,8.187659521E0
9.215390875E0,1.302890625E0,-8.033793640E0,1.375938721E0,8.254245671E0
9.225429875E0,8.482859802E-1,-7.918383636E0,1.473685455E0,8.098897292E0
9.235468875E0,3.623963928E-1,-7.695347443E0,1.474134521E0,7.843645581E0
9.245507875E0,2.709365845E-2,-7.325316925E0,1.783840485E0,7.539435589E0
9.255547875E0,-1.023870850E-1,-6.845863953E0,2.288441162E0,7.218954171E0
9.265586875E0,1.901046753E-1,-6.137087860E0,2.560575256E0,6.652558368E0
9.275625875E0,6.322851562E-1,-5.358107758E0,2.410736847E0,5.909378597E0
9.285664875E0,5.842350769E-1,-4.860542450E0,2.180814972E0,5.359305690E0
9.295703875E0,4.881349182E-1,-4.475842438E0,2.709665222E0,5.254876482E0
9.305742875E0,7.921527100E-1,-4.224964142E0,3.325185242E0,5.434582303E0
9.315782750E0,1.435215454E0,-4.286486206E0,3.295696564E0,5.594231246E0
9.325821750E0,2.024839325E0,-4.815935211E0,2.911595306E0,5.980852237E0
9.335860750E0,2.472408600E0,-5.732778625E0,2.372266846E0,6.678712828E0
9.345899750E0,2.798280945E0,-7.015910339E0,1.413660278E0,7.684517520E0
9.355938750E0,2.822979584E0,-8.200846252E0,-1.011686188E1,1.332568900E1
9.365978750E0,7.361242218E0,-8.887169037E0,-2.781306244E1,3.011205909E1
9.376017750E0,1.603345825E1,-1.080049026E1,-2.378359177E1,3.064933296E1
9.386056750E0,2.279220337E1,-1.309940964E1,-2.072425369E1,3.347497212E1
9.396095750E0,2.612981277E1,-1.524744278E1,-1.588930801E1,3.417194370E1
9.406134750E0,2.636662033E1,-1.532348465E1,-1.039573196E1,3.221923482E1
9.416174750E0,2.151146667E1,-1.287517593E1,-6.216572571E0,2.582942369E1
9.426213750E0,1.359787308E1,-8.961863708E0,-3.362308044E0,1.662895874E1
9.436252750E0,8.475525055E0,-5.105133820E0,-2.119143219E0,1.011867997E1
9.446291750E0,6.385571136E0,-2.234253845E0,-1.620679779E0,6.956580477E0
9.456330750E0,5.821693726E0,-5.135820007E-1,-1.246457977E0,5.975746129E0
9.466369750E0,5.936954041E0,-4.890330505E-1,3.999682617E-1,5.970473282E0
9.476409750E0,6.231840820E0,-1.992805939E0,3.332669678E0,7.342601903E0
9.486448750E0,7.033274231E0,-5.450016632E0,6.217919769E0,1.085505200E1
9.496487750E0,7.971972198E0,-9.222771149E0,6.699019318E0,1.391002186E1
9.506526750E0,8.755293274E0,-1.236114487E1,6.240373077E0,1.638277507E1
9.516565750E0,8.976084137E0,-1.411399979E1,5.961203613E0,1.775699932E1
9.526605750E0,8.269253998E0,-1.398062714E1,5.213358765E0,1.705923815E1
9.536644750E0,7.147337036E0,-1.284059784E1,4.752317505E0,1.544506074E1
9.546683750E0,5.869743805E0,-1.110091553E1,4.293970642E0,1.327111155E1
9.556722750E0,4.309238892E0,-9.643845520E0,5.009931793E0,1.169071053E1
9.566761750E0,2.282902679E0,-9.001980286E0,5.510341187E0,1.079866444E1
9.576801750E0,6.607260132E-1,-8.715925140E0,5.115312653E0,1.012770129E1
9.586840750E0,-2.288740540E-1,-8.240813141E0,5.668711853E0,1.000488274E1
9.596879750E0,-7.611671448E-1,-8.125552826E0,6.030659180E0,1.014755312E1
9.606918750E0,-1.149609375E0,-8.373287659E0,5.539979553E0,1.010568758E1
9.616957750E0,-1.035097504E0,-8.752748566E0,4.674629059E0,9.976682371E0
9.626996750E0,-1.445993042E-1,-9.096733246E0,3.415896606E0,9.718014938E0
9.637036750E0,3.842509460E-1,-9.243577881E0,2.489024048E0,9.580533468E0
9.647075750E0,3.028202820E-1,-9.297615509E0,1.974394226E0,9.509762712E0
9.657114750E0,-6.541397095E-2,-9.458381195E0,1.940863953E0,9.655682612E0
9.667153750E0,-4.640350342E-2,-9.443861389E0,2.055525513E0,9.665084395E0
9.677192750E0,2.673440552E-1,-9.358538818E0,2.194436646E0,9.616094522E0
9.687232750E0,7.011419678E-1,-9.326954498E0,2.246528320E0,9.619281146E0
9.697271750E0,1.063987427E0,-9.347761230E0,2.069895630E0,9.633129148E0
9.707310750E0,1.353036346E0,-9.359436951E0,1.554667053E0,9.583671376E0
9.717349750E0,1.994602203E0,-9.208251343E0,-1.612446899E0,9.558782127E0
9.727388750E0,2.887046356E0,-9.153914337E0,-4.581672363E0,1.063583123E1
9.737428750E0,3.585194550E0,-9.119635620E0,-2.974165192E0,1.024046056E1
9.747467750E0,4.069437561E0,-9.025182037E0,-7.357200623E-1,9.927513127E0
9.757506750E0,3.897744598E0,-9.286688232E0,2.607577515E-1,1.007486903E1
9.767545750E0,3.267704773E0,-9.797725525E0,6.539900208E-1,1.034896241E1
9.777584750E0,2.985840912E0,-1.017524048E1,7.740403748E-1,1.063249280E1
9.787623750E0,2.852168884E0,-1.022059616E1,7.923023987E-1,1.064063891E1
9.797663750E0,2.711760864E0,-9.893825684E0,1.063388672E0,1.031369134E1
9.807702750E0,2.669099579E0,-9.568252716E0,1.513652344E0,1.004821855E1
9.817741750E0,2.657124481E0,-9.303902435E0,1.773362274E0,9.837058747E0
9.827780750E0,2.756068726E0,-9.115294647E0,1.845961304E0,9.700107446E0
9.837819750E0,2.926115112E0,-8.959169312E0,1.898651733E0,9.614246866E0
9.847859750E0,3.184926910E0,-8.866062927E0,1.872605896E0,9.605075955E0
9.857898750E0,3.521277466E0,-8.891510010E0,1.779499512E0,9.727536366E0
9.867937750E0,3.976331177E0,-9.034163361E0,1.624571686E0,1.000332697E1
9.877976750E0,4.649032288E0,-9.407786407E0,1.547332306E0,1.060727032E1
9.888015750E0,5.497467957E0,-9.815388794E0,1.564247131E0,1.135829566E1
9.898055750E0,6.423442383E0,-1.004710693E1,1.111289062E0,1.197664115E1
9.908094750E0,7.537126465E0,-9.717791748E0,-1.785636749E0,1.242707731E1
9.918133750E0,8.340056763E0,-8.847800903E0,-8.350984039E0,1.475056141E1
9.928172750E0,8.411458282E0,-8.135132904E0,-1.307785446E1,1.754888302E1
9.938211750E0,7.494614868E0,-8.294551392E0,-9.692494354E0,1.479571835E1
9.948251750E0,6.220015411E0,-8.970096588E0,-3.385958862E0,1.142873317E1
9.958290750E0,4.622387695E0,-9.605375519E0,3.056643677E-1,1.066410510E1
9.968329750E0,2.856360168E0,-9.962532806E0,1.382674713E0,1.045574687E1
9.978368750E0,1.830243988E0,-1.051458481E1,1.690584412E0,1.080575598E1
9.988407750E0,1.261127472E0,-1.119641693E1,1.760039978E0,1.140385616E1
9.998446750E0,9.713301086E-1,-1.187735092E1,1.707499237E0,1.203870843E1
1.000848675E1,6.692582703E-1,-1.261546600E1,1.774859161E0,1.275727299E1
1.001852575E1,2.724334717E-1,-1.339025482E1,1.665885773E0,1.349623353E1
1.002856475E1,7.544311523E-2,-1.424168427E1,6.743476868E-1,1.425784020E1
1.003860375E1,1.188528442E-1,-1.466530334E1,-2.240391083E0,1.483592263E1
1.004864275E1,4.543052673E-1,-1.401999527E1,-6.723119202E0,1.555528825E1
1.005868275E1,1.292412415E0,-1.332873276E1,-8.453371124E0,1.583619052E1
1.006872175E1,2.342927856E0,-1.338426727E1,-5.789810028E0,1.476989579E1
1.007876075E1,3.146905975E0,-1.429332687E1,-2.595602417E0,1.486402914E1
1.008879975E1,3.227887573E0,-1.512604523E1,2.603086853E-1,1.546881582E1
1.009883875E1,3.140169983E0,-1.539159302E1,3.010838928E0,1.599459140E1
1.010887875E1,3.527714081E0,-1.525163406E1,4.688101044E0,1.634121781E1
1.011891775E1,4.480782166E0,-1.476170288E1,5.026996307E0,1.622516480E1
1.012895675E1,5.633535004E0,-1.402209091E1,4.904101868E0,1.588728943E1
1.013899575E1,6.719676361E0,-1.327215042E1,4.693639526E0,1.559917559E1
1.014903475E1,7.359445953E0,-1.230171844E1,4.484524384E0,1.502014249E1
1.015907475E1,7.556735687E0,-1.130928223E1,4.151167603E0,1.422098137E1
1.016911375E1,7.782316589E0,-1.067699707E1,3.727698212E0,1.372801704E1
1.017915275E1,7.867938538E0,-1.036848862E1,3.331921234E0,1.343546472E1
1.018919175E1,7.969726868E0,-1.028181885E1,2.917433167E0,1.333205766E1
1.019923075E1,8.205935669E0,-1.032537827E1,2.407144318E0,1.340690719E1
1.020926975E1,8.887917480E0,-1.003019211E1,1.468745728E0,1.348173004E1
1.021930975E1,9.980046387E0,-9.125922546E0,-1.093625793E0,1.356760132E1
1.022934875E1,9.170080719E0,-8.666378174E0,1.056802368E-1,1.261775176E1
1.023938775E1,7.508086853E0,-8.242459717E0,1.509461060E0,1.125113252E1
1.024942675E1,6.360273743E0,-7.607929230E0,1.448388062E0,1.002155164E1
1.025946575E1,5.498216400E0,-7.096293182E0,1.439855804E0,9.091806490E0
1.026950575E1,4.865631866E0,-6.842870178E0,1.347946930E0,8.503893618E0
1.027954475E1,4.517306213E0,-6.717880096E0,1.038091278E0,8.161715623E0
1.028958375E1,4.067940674E0,-6.571484528E0,7.396119690E-1,7.763992278E0
1.029962275E1,3.544329529E0,-6.497089233E0,6.494993591E-1,7.429420552E0
1.030966171E1,3.222049713E0,-6.418802032E0,8.173004150E-1,7.228457917E0
1.031970171E1,3.002156982E0,-6.368207245E0,1.341660004E0,7.167081807E0
1.032974071E1,2.652184753E0,-6.354286194E0,2.152523804E0,7.214180184E0
1.033977971E1,2.074236603E0,-6.412066040E0,2.992726593E0,7.373836237E0
1.034981871E1,1.484912109E0,-6.336173859E0,3.747008057E0,7.509469523E0
1.035985771E1,8.925938416E-1,-6.162235565E0,4.033063202E0,7.418589470E0
1.036989771E1,2.082170105E-1,-5.955066376E0,3.674708405E0,7.000689375E0
1.037993671E1,-3.600013733E-1,-5.759872284E0,2.987188110E0,6.498386148E0
1.038997571E1,-4.833448792E-1,-5.545218658E0,2.767145691E0,6.216121582E0
1.040001471E1,-5.219645691E-1,-5.352569275E0,3.043022003E0,6.179193132E0
1.041005371E1,-3.722758484E-1,-5.016368408E0,3.149151306E0,5.934618376E0
1.042009271E1,-1.010398865E-1,-4.582271118E0,2.997366943E0,5.476461107E0
1.043013271E1,-4.700225830E-2,-4.109254761E0,3.074306946E0,5.132206845E0
1.044017171E1,2.800675964E-1,-3.916605377E0,3.672912140E0,5.376664312E0
1.045021071E1,1.130299530E0,-4.174519043E0,4.141737213E0,5.988169454E0
1.046024971E1,2.215542755E0,-4.870870972E0,3.966451721E0,6.660837258E0
1.047028871E1,3.210823059E0,-6.092779999E0,3.370091858E0,7.667390166E0
1.048032871E1,4.162394257E0,-7.727829895E0,2.734962616E0,9.193742510E0
1.049036771E1,5.024152222E0,-9.588610382E0,-4.200714569E0,1.161161304E1
1.050040671E1,9.215735779E0,-1.104897354E1,-3.691174164E1,3.961674233E1
1.051044571E1,1.771356445E1,-1.310629532E1,-2.951502319E1,3.683316354E1
1.052048471E1,2.219659195E1,-1.400308044E1,-1.951626572E1,3.270565064E1
1.053052471E1,2.331012634E1,-1.375175308E1,-1.504551270E1,3.096514420E1
1.054056371E1,2.314561844E1,-1.231878296E1,-8.215815125E0,2.747674807E1
1.055060271E1,2.083098175E1,-9.843979340E0,-5.888005829E0,2.378029316E1
1.056064171E1,1.583901260E1,-8.067174225E0,-3.051254883E0,1.803507074E1
1.057068071E1,1.231578918E1,-7.757318573E0,2.926414490E-1,1.455816931E1
1.058072071E1,1.283281403E1,-7.861352234E0,1.482068024E0,1.512211957E1
1.059075971E1,1.272384064E1,-7.877518616E0,2.184706879E0,1.512363595E1
1.060079871E1,1.048255142E1,-7.829468536E0,2.836152191E0,1.338761447E1
1.061083771E1,7.142846375E0,-7.862849121E0,3.864364014E0,1.130389136E1
1.062087671E1,4.684059448E0,-7.949219513E0,5.225932617E0,1.060381420E1
1.063091671E1,3.961661682E0,-7.752977600E0,5.181624756E0,1.013176490E1
1.064095571E1,3.112776947E0,-7.680827637E0,4.649181976E0,9.502598937E0
1.065099471E1,2.295626221E0,-7.372319183E0,4.525090027E0,8.949716735E0
1.066103371E1,1.741478577E0,-7.144642639E0,4.671934662E0,8.712384264E0
1.067107271E1,1.269510040E0,-7.196135559E0,4.688250732E0,8.681919008E0
1.068111271E1,8.698411560E-1,-7.358996887E0,5.190606079E0,9.047311772E0
1.069115171E1,3.333567810E-1,-7.657326508E0,5.911806335E0,9.679629649E0
1.070119071E1,-2.799179077E-1,-8.376431122E0,6.886878662E0,1.084767487E1
1.071122971E1,-3.369493103E-1,-9.395511932E0,7.266788635E0,1.188256691E1
1.072126871E1,5.522016907E-1,-1.029050079E1,6.797215118E0,1.234509889E1
1.073130771E1,1.284778290E0,-1.116543137E1,5.884413300E0,1.268636405E1
1.074134771E1,1.241518250E0,-1.209799210E1,4.821324005E0,1.308235244E1
1.075138671E1,7.779322815E-1,-1.275722122E1,3.703149261E0,1.330658432E1
1.076142571E1,2.201921082E-1,-1.291035278E1,2.662812653E0,1.318393965E1
1.077146471E1,-3.255729675E-1,-1.252176086E1,1.684297485E0,1.263872426E1
1.078150371E1,-5.830375671E-1,-1.141047180E1,9.533674622E-1,1.146506472E1
1.079154371E1,-4.969665527E-1,-1.015922379E1,4.703219604E-1,1.018223975E1
1.080158271E1,-1.567240906E-1,-9.135652313E0,1.077758789E-1,9.137632148E0
1.081162171E1,6.604266357E-1,-8.244705048E0,-3.035238190E0,8.810448089E0
1.082166071E1,1.944456482E0,-7.939639435E0,-6.111191711E0,1.020614763E1
1.083169971E1,3.042722626E0,-8.474626923E0,-4.128714294E0,9.905742990E0
1.084173971E1,4.255949707E0,-8.958271179E0,-1.259630585E0,9.997519674E0
1.085177871E1,5.515131226E0,-9.198072510E0,2.863545227E-1,1.072861637E1
1.086181771E1,6.014642487E0,-9.557026062E0,8.816665649E-2,1.129249506E1
1.087185671E1,5.716312866E0,-1.001178040E1,-3.974235535E-1,1.153559383E1
1.088189571E1,5.056784363E0,-1.027553192E1,-5.655239868E-1,1.146636131E1
1.089193571E1,4.126618652E0,-1.032627640E1,-2.776725769E-1,1.112376141E1
1.090197471E1,3.211721191E0,-9.776619415E0,4.583468628E-1,1.030085055E1
1.091201371E1,2.721191254E0,-9.065448303E0,1.174457703E0,9.537640467E0
1.092205271E1,2.299667816E0,-8.455466766E0,1.498234406E0,8.889774836E0
1.093209171E1,1.819167023E0,-8.086035004E0,1.524280243E0,8.427144297E0
1.094213171E1,1.602866821E0,-7.759563904E0,1.412762146E0,8.048348334E0
1.095217071E1,1.564247131E0,-7.589816895E0,1.381327515E0,7.871483677E0
1.096220971E1,1.729802856E0,-7.519612885E0,1.500479736E0,7.860549300E0
1.097224871E1,2.240690460E0,-7.632777557E0,1.571731567E0,8.108657540E0
1.098228771E1,2.923570404E0,-7.962841187E0,1.515897675E0,8.616962889E0
1.099232671E1,3.700155487E0,-8.413254547E0,1.494641876E0,9.311710747E0
1.100236671E1,4.527185669E0,-8.995543671E0,1.522783356E0,1.018499314E1
1.101240571E1,5.396428070E0,-9.652677155E0,1.547931061E0,1.116654390E1
1.102244471E1,6.289321289E0,-9.963430939E0,9.190887451E-1,1.181821655E1
1.103248371E1,7.104376373E0,-9.557924194E0,-1.596579895E0,1.201562091E1
1.104252271E1,7.555538177E0,-8.746311951E0,-5.709127808E0,1.289101510E1
1.105256271E1,7.665110321E0,-8.331524506E0,-8.704249420E0,1.428048230E1
1.106260171E1,7.309150543E0,-8.719068604E0,-7.526498566E0,1.364162819E1
1.107264071E1,6.236630859E0,-9.563612366E0,-3.394191742E0,1.191128807E1
1.108267971E1,4.552333374E0,-1.018317398E1,-3.956272888E-1,1.116141982E1
1.109271871E1,2.683170319E0,-1.034618500E1,3.614982605E-1,1.069456067E1
1.110275871E1,1.224603424E0,-1.093820389E1,-3.712280273E-2,1.100660420E1
1.111279771E1,1.200503540E-1,-1.164398621E1,-4.754113770E-1,1.165430576E1
1.112283671E1,-7.280859375E-1,-1.246068787E1,-7.252418518E-1,1.250299272E1
1.113287571E1,-1.290616150E0,-1.331316513E1,-7.801776123E-1,1.339831082E1
1.114291471E1,-1.715133362E0,-1.409439056E1,-6.819818115E-1,1.421473274E1
1.115295471E1,-1.828597412E0,-1.479014374E1,-9.328601074E-1,1.493192380E1
1.116299371E1,-1.308279419E0,-1.538021667E1,-2.441722412E0,1.562768916E1
1.117303271E1,3.227288818E-1,-1.547901123E1,-5.384902039E0,1.639210519E1
1.118307171E1,2.246378632E0,-1.513906815E1,-6.721023560E0,1.671555440E1
1.119311071E1,3.021766205E0,-1.503323822E1,-3.677552490E0,1.576875755E1
1.120315071E1,2.512375488E0,-1.507410324E1,1.231638794E0,1.533158678E1
1.121318971E1,2.313738556E0,-1.547182617E1,4.808151398E0,1.636609639E1
1.122322871E1,3.557502136E0,-1.568992264E1,5.495072937E0,1.700074470E1
1.123326771E1,5.140460358E0,-1.535282364E1,5.612877960E0,1.713586664E1
1.124330671E1,6.410718842E0,-1.455932373E1,5.868097229E0,1.695599565E1
1.125334671E1,7.230863342E0,-1.347797241E1,5.672903137E0,1.631327542E1
1.126338571E1,7.781717834E0,-1.249631378E1,5.209915924E0,1.561589621E1
1.127342471E1,8.377478943E0,-1.175041489E1,4.797074432E0,1.520744313E1
1.128346371E1,8.975784760E0,-1.124865829E1,4.337679749E0,1.503038559E1
1.129350271E1,9.335187378E0,-1.092503128E1,3.863316193E0,1.488043158E1
1.130354271E1,9.770781555E0,-1.064361649E1,2.612068176E0,1.468256259E1
1.131358108E1,1.160087585E1,-9.753866730E0,-1.490001526E0,1.522952203E1
1.132362008E1,1.085003723E1,-9.237440643E0,-9.175918579E-1,1.427920139E1
1.133365908E1,8.783135376E0,-8.895551605E0,1.426683197E0,1.258211947E1
1.134369808E1,7.360942841E0,-8.337961121E0,2.448159027E0,1.138852746E1
1.135373808E1,6.352340240E0,-7.758516083E0,2.515369263E0,1.033798244E1
1.136377708E1,5.469925232E0,-7.289541321E0,2.037413177E0,9.338551663E0
1.137381608E1,4.472698975E0,-6.862778778E0,1.695823517E0,8.365320441E0
1.138385508E1,3.528911591E0,-6.490353241E0,1.577868805E0,7.554308186E0
1.139389408E1,3.232677612E0,-6.385122070E0,1.363813934E0,7.285600651E0
1.140393408E1,3.429518280E0,-6.319408722E0,1.354682922E0,7.316535249E0
1.141397308E1,3.434757385E0,-6.195765839E0,1.178648987E0,7.181523937E0
1.142401208E1,3.213816833E0,-6.114335175E0,1.056502991E0,6.987840284E0
1.143405108E1,2.831362152E0,-5.977968750E0,1.241368561E0,6.730060766E0
1.144409008E1,2.260599060E0,-5.919889526E0,1.665436707E0,6.552028658E0
1.145413008E1,1.607207794E0,-5.807473297E0,2.308499451E0,6.452831371E0
1.146416908E1,8.491841125E-1,-5.760920105E0,2.959645386E0,6.532137087E0
1.147420808E1,2.145039368E-1,-5.696853333E0,3.257525940E0,6.565944340E0
1.148424708E1,-3.951782227E-1,-5.518574066E0,3.199446716E0,6.391188062E0
1.149428608E1,-5.610333252E-1,-5.220843201E0,3.180585938E0,6.139062553E0
1.150432508E1,-4.451742554E-1,-4.905598755E0,3.231929169E0,5.891387393E0
1.151436508E1,-4.345463562E-1,-4.555027771E0,3.231180725E0,5.601574547E0
1.152440408E1,-4.290078735E-1,-4.118236084E0,3.010838928E0,5.119479197E0
1.153444308E1,-1.285826111E-1,-3.803889771E0,3.239114227E0,4.997796700E0
1.154448208E1,6.306385803E-1,-3.759282532E0,3.873495026E0,5.434507695E0
1.155452108E1,1.604214020E0,-4.127666473E0,4.150119781E0,6.069153758E0
1.156456108E1,2.273621979E0,-4.956193542E0,3.745062103E0,6.615036016E0
1.157460008E1,2.727029114E0,-6.179898834E0,3.182681580E0,7.467081051E0
1.158463908E1,3.089126129E0,-7.736960907E0,1.060993652E0,8.398152883E0
1.159467808E1,4.149221649E0,-9.909842377E0,-2.991559021E1,3.178621641E1
1.160471708E1,1.266710861E1,-1.233958969E1,-4.038901062E1,4.409073931E1
1.161475708E1,1.776116547E1,-1.403391632E1,-1.462144455E1,2.694803234E1
1.162479608E1,1.952988739E1,-1.422027878E1,-1.620081024E1,2.908778236E1
1.163483508E1,2.017504578E1,-1.314251999E1,-1.471350311E1,2.821782199E1
1.164487408E1,1.830154175E1,-1.015847534E1,-1.059137512E1,2.345886354E1
1.165491308E1,1.393197830E1,-7.134463806E0,-7.676336975E0,1.743349485E1
1.166495308E1,9.799372101E0,-5.316943359E0,-5.836213531E0,1.258407599E1
1.167499208E1,7.758815460E0,-4.294419708E0,-3.472928009E0,9.523785326E0
1.168503108E1,7.551496582E0,-4.425247650E0,-1.315763855E-1,8.753583823E0
1.169507008E1,8.704698486E0,-5.676046600E0,2.539918213E0,1.069768504E1
1.170510908E1,1.082473984E1,-7.114704895E0,3.547472992E0,1.343050941E1
1.171514908E1,1.105361389E1,-8.261919250E0,4.069138184E0,1.438747981E1
1.172518808E1,9.374705200E0,-9.547296295E0,4.328399048E0,1.406310785E1
1.173522708E1,6.819369049E0,-1.070588699E1,3.789369965E0,1.324685379E1
1.174526608E1,4.201313324E0,-1.069211563E1,3.361260223E0,1.196956309E1
1.175530508E1,3.187172241E0,-9.481133881E0,3.288810883E0,1.052930404E1
1.176534508E1,3.012784882E0,-8.355624390E0,3.061882782E0,9.395129475E0
1.177538408E1,2.948418732E0,-7.845335541E0,3.167113953E0,8.959524181E0
1.178542308E1,2.993325348E0,-8.050409088E0,3.688779144E0,9.347522383E0
1.179546208E1,3.650458832E0,-8.548573151E0,4.191284180E0,1.019660805E1
1.180550108E1,4.739294586E0,-9.298663330E0,4.242028656E0,1.126591585E1
1.181554108E1,5.538782043E0,-1.021371048E1,4.518952789E0,1.246671258E1
1.182558008E1,5.474266205E0,-1.113369736E1,4.998405762E0,1.337575671E1
1.183561908E1,4.978796539E0,-1.172691376E1,5.004692688E0,1.368780005E1
1.184565808E1,4.020339661E0,-1.186612427E1,4.309987335E0,1.324930289E1
1.185569708E1,3.160377960E0,-1.181642761E1,3.586392059E0,1.274669206E1
1.186573708E1,2.445165253E0,-1.178678925E1,3.200344849E0,1.245589985E1
1.187577608E1,1.781295776E0,-1.158276352E1,2.802023163E0,1.204926384E1
1.188581508E1,1.157692566E0,-1.120030884E1,2.432292023E0,1.151968813E1
1.189585408E1,8.237370300E-1,-1.073238190E1,1.852697296E0,1.092222739E1
1.190589308E1,8.652008057E-1,-1.004082001E1,9.627978516E-1,1.012391320E1
1.191593308E1,8.349636841E-1,-9.279802551E0,-1.055455170E0,9.376880364E0
1.192597208E1,8.485853577E-1,-8.624016266E0,-3.090323639E0,9.200209446E0
1.193601108E1,1.380878448E0,-8.257428589E0,-2.964435425E0,8.881431730E0
1.194605008E1,2.266885986E0,-8.253686371E0,-1.570833435E0,8.702277200E0
1.195608908E1,3.417692871E0,-8.384963379E0,-1.191522217E-1,9.055519459E0
1.196612908E1,4.148473206E0,-8.662037201E0,6.911128235E-1,9.629037093E0
1.197616808E1,3.941603394E0,-8.882079620E0,8.416996765E-1,9.753770247E0
1.198620708E1,3.777394867E0,-8.782237244E0,7.346722412E-1,9.588333864E0
1.199624608E1,3.733087006E0,-8.464448090E0,5.936654663E-1,9.270127223E0
1.200628508E1,3.666475525E0,-8.092621307E0,3.914360046E-1,8.893075089E0
1.201632508E1,3.685336304E0,-7.756719818E0,-1.197509766E-3,8.587689296E0
1.202636408E1,3.722908173E0,-7.567662964E0,-3.864962769E-1,8.442686028E0
1.203640308E1,3.857178955E0,-7.612569580E0,-4.411326599E-1,8.545387243E0
1.204644208E1,3.891307983E0,-7.914192352E0,-1.734892273E-1,8.820817248E0
1.205648108E1,3.816014557E0,-8.286767578E0,7.244934082E-2,9.123471538E0
1.206652108E1,3.619922333E0,-8.583899689E0,9.235794067E-2,9.316421070E0
1.207656008E1,3.349285126E0,-8.624016266E0,1.269360352E-1,9.252431041E0
1.208659908E1,3.150797882E0,-8.448431396E0,2.463876343E-1,9.020212149E0
1.209663808E1,3.010389862E0,-8.039781189E0,4.281097412E-1,8.595569012E0
1.210667708E1,3.001258850E0,-7.735464020E0,6.471043396E-1,8.322481740E0
1.211671708E1,3.162473602E0,-7.748187561E0,8.708889771E-1,8.413922829E0
1.212675608E1,3.583098907E0,-7.808961182E0,1.077309723E0,8.659045488E0
1.213679508E1,4.327051849E0,-8.143665161E0,1.180894318E0,9.297159316E0
1.214683408E1,5.240003357E0,-8.634793854E0,1.207688599E0,1.017230612E1
1.215687308E1,6.120921478E0,-9.019643555E0,1.106948090E0,1.095650417E1
1.216691308E1,7.098837891E0,-9.327702942E0,1.791773987E-1,1.172312442E1
1.217695208E1,8.159083099E0,-9.602082367E0,-2.658471680E0,1.287781404E1
1.218699108E1,8.784781952E0,-9.747879181E0,-7.239545288E0,1.498681282E1
1.219703008E1,8.472980347E0,-9.441017303E0,-9.655521240E0,1.594218599E1
1.220706908E1,7.198979645E0,-8.916208649E0,-6.559210052E0,1.320406457E1
1.221710908E1,5.545518036E0,-9.140292664E0,-1.613644409E0,1.081210287E1
1.222714808E1,3.960464172E0,-1.024304947E1,1.131946106E0,1.104022830E1
1.223718708E1,2.900967407E0,-1.117965179E1,1.493893433E0,1.164611282E1
1.224722608E1,2.495310974E0,-1.198572556E1,1.179547119E0,1.229941159E1
1.225726508E1,2.395767975E0,-1.261980698E1,9.854008484E-1,1.288294404E1
1.226730508E1,2.287543030E0,-1.307875259E1,8.454418945E-1,1.330418711E1
1.227734408E1,2.239492950E0,-1.359128677E1,6.460565186E-1,1.378969883E1
1.228738308E1,2.374362488E0,-1.426578415E1,3.890409851E-1,1.446725777E1
1.229742208E1,2.592009888E0,-1.455109085E1,-4.317022705E-1,1.478645079E1
1.230746108E1,2.739153900E0,-1.374262207E1,-1.996847534E0,1.415450549E1
1.231750158E1,3.477418671E0,-1.274584488E1,-3.212918701E0,1.359675876E1
1.232754058E1,4.615951080E0,-1.226175156E1,-3.053051147E0,1.345283156E1
1.233757958E1,5.128634949E0,-1.223630447E1,-1.729952545E0,1.337993944E1
1.234761858E1,5.570516052E0,-1.230141907E1,-2.080673218E-1,1.350551192E1
1.235765758E1,5.867049408E0,-1.238539444E1,8.985813904E-1,1.373418045E1
1.236769658E1,6.225404205E0,-1.238449631E1,1.572779388E0,1.395009109E1
1.237773658E1,6.230792999E0,-1.267219803E1,2.169887695E0,1.428690998E1
1.238777558E1,5.704936523E0,-1.322335190E1,3.144660645E0,1.474083535E1
1.239781458E1,5.440735931E0,-1.356479187E1,3.891607361E0,1.512447665E1
1.240785358E1,5.656437378E0,-1.361209351E1,4.034410400E0,1.528269743E1
1.241789258E1,6.067931671E0,-1.334924011E1,3.981270905E0,1.519448993E1
1.242793258E1,6.271208954E0,-1.301363800E1,3.920048218E0,1.496828694E1
1.243797158E1,6.232140198E0,-1.277742920E1,3.287164307E0,1.459135763E1
1.244801058E1,5.733527069E0,-1.260813126E1,1.845362549E0,1.397296208E1
1.245804958E1,4.878355408E0,-1.246053818E1,2.052232361E-1,1.338302954E1
1.246808858E1,4.060306549E0,-1.183424057E1,-4.107458496E-1,1.251814888E1
1.247812858E1,3.587439880E0,-1.079285614E1,5.194198608E-2,1.137357316E1
1.248816758E1,3.196752319E0,-9.879455566E0,9.288185120E-1,1.042523724E1
1.249820658E1,2.629581757E0,-9.163644104E0,2.539169769E0,9.865822652E0
1.250824558E1,1.911824341E0,-8.379424896E0,3.389701080E0,9.239042554E0
1.251828458E1,1.373992767E0,-7.607929230E0,2.900368652E0,8.257153360E0
1.252832458E1,9.777667236E-1,-6.980284424E0,1.978286133E0,7.320793292E0
1.253836358E1,8.402027893E-1,-6.599925385E0,1.326391754E0,6.784119021E0
1.254840258E1,8.481362915E-1,-6.408922577E0,1.060095520E0,6.551139311E0
1.255844158E1,9.160949707E-1,-6.330485687E0,9.807604980E-1,6.471179969E0
1.256848158E1,9.999206543E-1,-6.241570587E0,1.068029022E0,6.410751181E0
1.257852058E1,1.071621552E0,-6.174360352E0,1.300495605E0,6.400186507E0
1.258855958E1,8.457412720E-1,-6.474785614E0,1.708996124E0,6.749725535E0
1.259859858E1,5.038522339E-1,-7.085365906E0,2.241738281E0,7.448601722E0
1.260863758E1,1.104702759E-1,-7.817044373E0,2.685565338E0,8.266235394E0
1.261867658E1,-1.046324158E-1,-8.681047668E0,2.932701416E0,9.163638696E0
1.262871658E1,-2.207908630E-1,-9.472002869E0,2.875071259E0,9.901192943E0
1.263875558E1,7.589218140E-2,-9.904303894E0,2.603236542E0,1.024098803E1
1.264879458E1,7.387138367E-1,-1.000235001E1,2.594404907E0,1.035971238E1
1.265883358E1,1.683998108E0,-9.681118011E0,2.755469971E0,1.020551372E1
1.266887258E1,2.857707367E0,-8.867260437E0,2.856958923E0,9.744588926E0
1.267891258E1,3.967798920E0,-7.694898376E0,2.783312073E0,9.094048350E0
1.268895158E1,4.444407806E0,-6.529871063E0,2.749183044E0,8.363610719E0
1.269899058E1,4.379143524E0,-5.635181580E0,2.726280670E0,7.639684269E0
1.270902958E1,4.216731262E0,-5.043013000E0,2.624791718E0,7.078300235E0
1.271906858E1,4.238136749E0,-4.781955872E0,2.515818329E0,6.867186245E0
1.272910858E1,4.358486481E0,-4.847070465E0,2.400408325E0,6.946398824E0
1.273914758E1,4.887037354E0,-5.382057953E0,2.202070770E0,7.595972458E0
1.274918658E1,5.983357544E0,-6.252198486E0,2.227368164E0,8.935979093E0
1.275922558E1,7.500303040E0,-7.137607269E0,1.890418854E0,1.052490697E1
1.276926458E1,9.733808441E0,-7.815547485E0,5.322930908E-1,1.249452461E1
1.277930458E1,1.424198364E1,-7.970924377E0,-7.376510468E0,1.791040592E1
1.278934358E1,2.116508698E1,-8.154143372E0,-2.355501709E1,3.269999680E1
1.279938258E1,2.270613235E1,-9.840237122E0,-2.064611618E1,3.222826130E1
1.280942158E1,1.960727646E1,-1.103071152E1,-1.453237976E1,2.678268000E1
1.281946058E1,1.591086319E1,-1.101589233E1,-1.227088257E1,2.291462438E1
1.282950058E1,1.226399689E1,-9.067693634E0,-8.531358948E0,1.747606286E1
1.283953958E1,9.382189636E0,-6.409072266E0,-4.427193604E0,1.219433200E1
1.284957858E1,7.771089935E0,-5.194797363E0,-2.564167786E0,9.692817695E0
1.285961758E1,7.720644836E0,-5.873785400E0,-2.807411957E0,1.009907290E1
1.286965658E1,8.160280609E0,-7.992329865E0,-4.222868500E0,1.217785427E1
1.287969658E1,8.094118195E0,-1.053075119E1,-4.276007996E0,1.395334062E1
1.288973558E1,7.437134399E0,-1.214559311E1,-1.303040314E0,1.430119974E1
1.289977458E1,6.248605957E0,-1.224648331E1,2.769840088E0,1.402474399E1
1.290981358E1,4.435576172E0,-1.141586060E1,4.186045074E0,1.294292017E1
1.291985258E1,3.141966248E0,-9.671088867E0,4.461921387E0,1.110453305E1
1.292989258E1,2.794239349E0,-8.327931976E0,4.555027771E0,9.894973600E0
1.293993158E1,2.966531067E0,-7.778274994E0,4.522245941E0,9.473783658E0
1.294997058E1,3.078049164E0,-7.466623077E0,4.894521790E0,9.443579321E0
1.296000958E1,2.623444519E0,-7.386090546E0,5.609734497E0,9.638771489E0
1.297004858E1,1.861977997E0,-7.706723785E0,6.627617798E0,1.033372495E1
1.298008858E1,1.378932495E0,-8.397537231E0,7.510481873E0,1.135021693E1
1.299012758E1,1.801952820E0,-9.488468628E0,7.926466827E0,1.249427658E1
1.300016658E1,2.617606659E0,-1.086276077E1,7.874225464E0,1.366948656E1
1.301020558E1,2.697390747E0,-1.242446320E1,7.560028839E0,1.479179633E1
1.302024458E1,1.981130219E0,-1.344354401E1,6.814429321E0,1.520165121E1
1.303028458E1,1.162781982E0,-1.356434280E1,5.568570099E0,1.470892350E1
1.304032358E1,7.002438354E-1,-1.290152115E1,4.226461029E0,1.359421061E1
1.305036258E1,6.149212646E-1,-1.174113419E1,3.258424072E0,1.220039702E1
1.306040158E1,7.562274170E-1,-1.050455566E1,2.548899536E0,1.083579524E1
1.307044058E1,7.554789734E-1,-9.497599640E0,1.894759827E0,9.714178411E0
1.308048058E1,6.704557800E-1,-8.660690002E0,1.045725403E0,8.749320196E0
1.309051958E1,1.304537201E0,-8.031697998E0,-1.023870850E0,8.201115873E0
1.310055858E1,3.817511444E0,-7.518714752E0,-6.934629364E0,1.091757984E1
1.311059758E1,6.198609924E0,-8.015681305E0,-6.624773712E0,1.210626030E1
1.312063658E1,7.085814972E0,-8.638985138E0,-4.921166382E0,1.220896050E1
1.313067658E1,6.815477142E0,-9.153914337E0,-3.550616455E0,1.195206064E1
1.314071558E1,6.101761322E0,-9.623637543E0,-1.649120636E0,1.151370877E1
1.315075458E1,5.397625580E0,-9.844278717E0,1.871109009E-2,1.122695575E1
1.316079358E1,4.912933502E0,-9.808503113E0,1.211281128E0,1.103679532E1
1.317083358E1,4.515509949E0,-9.610914001E0,1.762434998E0,1.076409193E1
1.318087258E1,4.277205505E0,-9.267378387E0,2.051932983E0,1.041101427E1
1.319091158E1,4.191583557E0,-8.725056152E0,2.283800812E0,9.945437332E0
1.320095058E1,3.935166779E0,-8.088430023E0,2.502645721E0,9.336566469E0
1.321098958E1,3.531605988E0,-7.405101013E0,2.641556854E0,8.618908543E0
1.322102958E1,3.357518005E0,-6.958579559E0,2.461780701E0,8.108953130E0
1.323106858E1,3.492237854E0,-6.931186523E0,1.994602203E0,8.013458043E0
1.324110758E1,3.585493927E0,-7.023694153E0,1.643133087E0,8.055304625E0
1.325114658E1,3.660188599E0,-7.142996063E0,1.466799774E0,8.159097678E0
1.326118558E1,3.889212341E0,-7.355404358E0,1.375339966E0,8.433238164E0
1.327122558E1,4.149371338E0,-7.653733978E0,1.401236115E0,8.818185128E0
1.328126458E1,4.611759796E0,-8.079149323E0,1.592089233E0,9.437993978E0
1.329130358E1,5.405409393E0,-8.725056152E0,1.818268890E0,1.042358659E1
1.330134258E1,6.151308289E0,-9.273515625E0,2.015109558E0,1.130917116E1
1.331138158E1,6.583759003E0,-9.568552094E0,1.971999207E0,1.178099540E1
1.332142087E1,6.480024719E0,-9.379195862E0,1.543590088E0,1.150402998E1
1.333146088E1,5.992189178E0,-9.036408691E0,7.608677673E-1,1.086931152E1
1.334149988E1,5.523813171E0,-9.158854065E0,-4.703219604E-1,1.070599470E1
1.335153888E1,5.035079498E0,-9.681567078E0,-2.573298798E0,1.121189696E1
1.336157788E1,4.299060059E0,-1.038719971E1,-5.114713898E0,1.235055195E1
1.337161788E1,3.527414703E0,-1.102487366E1,-6.250102844E0,1.315500966E1
1.338165687E1,3.106490021E0,-1.153920410E1,-5.069807281E0,1.298100371E1
1.339169587E1,2.990481262E0,-1.192465256E1,-2.659070435E0,1.257819432E1
1.340173487E1,2.913241882E0,-1.222702377E1,-6.864724731E-1,1.258802340E1
1.341177387E1,2.955603790E0,-1.270288422E1,3.140469360E-1,1.304597588E1
1.342181388E1,3.297193451E0,-1.317605026E1,4.951702881E-1,1.359135677E1
1.343185288E1,3.732338562E0,-1.349354004E1,2.787203979E-1,1.400298750E1
1.344189188E1,4.316873016E0,-1.400966675E1,7.484436035E-2,1.465986892E1
1.345193088E1,4.859794006E0,-1.442310699E1,-1.249900818E-1,1.522035596E1
1.346196988E1,5.118755493E0,-1.436547684E1,-5.432203674E-1,1.525987126E1
1.347200987E1,5.370382233E0,-1.349548599E1,-1.387165375E0,1.459086616E1
1.348204887E1,5.999523926E0,-1.202434525E1,-2.704575806E0,1.370743945E1
1.349208787E1,6.254743195E0,-1.091500214E1,-2.762056274E0,1.287975306E1
1.350212687E1,5.586981812E0,-1.051204010E1,-1.430275726E0,1.199012266E1
1.351216587E1,4.372257843E0,-1.050725006E1,1.948947144E-1,1.138230761E1
1.352220588E1,3.498824158E0,-1.080932190E1,1.844464417E0,1.151022412E1
1.353224488E1,3.118465118E0,-1.120674545E1,3.350782013E0,1.210552388E1
1.354228388E1,2.864593048E0,-1.142020157E1,4.316573639E0,1.254032317E1
1.355232288E1,2.253563690E0,-1.159593613E1,4.499193878E0,1.264068944E1
1.356236188E1,2.016606445E0,-1.169038971E1,4.103117523E0,1.255258884E1
1.357240187E1,2.545157318E0,-1.178244827E1,3.604354706E0,1.258154545E1
1.358244087E1,3.397484894E0,-1.183468964E1,3.255579987E0,1.273583854E1
1.359247987E1,4.023333435E0,-1.195518906E1,3.103047180E0,1.299009850E1
1.360251887E1,4.158053284E0,-1.213885712E1,2.287243652E0,1.303352380E1
1.361255787E1,4.050726471E0,-1.230336502E1,3.617976379E-1,1.295808911E1
1.362259788E1,4.116888885E0,-1.234423004E1,2.095642090E-3,1.301263977E1
1.363263688E1,4.064348145E0,-1.200458633E1,9.041198730E-1,1.270615802E1
1.364267588E1,3.700903931E0,-1.132140701E1,1.420545959E0,1.199536984E1
1.365271488E1,3.152893524E0,-1.068777466E1,2.069895630E0,1.133374310E1
1.366275388E1,2.596201172E0,-1.011222153E1,2.445764008E0,1.072282828E1
1.367279387E1,2.173480225E0,-9.683063965E0,2.295626221E0,1.018605143E1
1.368283287E1,1.967658234E0,-9.382039948E0,1.701062622E0,9.735911182E0
1.369287187E1,1.820214844E0,-9.168284454E0,1.021475830E0,9.402873751E0
1.370291087E1,1.568288727E0,-9.016200714E0,6.706054688E-1,9.176116637E0
1.371294988E1,1.405876465E0,-8.923543396E0,6.095324707E-1,9.054150717E0
1.372298988E1,1.467248840E0,-8.850794678E0,7.807763672E-1,9.005498172E0
1.373302888E1,1.621577911E0,-8.871302032E0,1.090931396E0,9.084032474E0
1.374306788E1,1.783092041E0,-8.853788452E0,1.652114410E0,9.181419782E0
1.375310688E1,1.888921967E0,-8.821306000E0,2.486329651E0,9.357633294E0
1.376314587E1,1.903591461E0,-8.624016266E0,2.969973907E0,9.317621049E0
1.377318587E1,2.148033142E0,-8.217611389E0,3.266507263E0,9.100178736E0
1.378322487E1,2.581980743E0,-7.881560211E0,3.643722839E0,9.058826196E0
1.379326387E1,3.151097260E0,-7.486531677E0,4.077071686E0,9.088458837E0
1.380330287E1,3.790866852E0,-6.809639282E0,4.339026947E0,8.920146495E0
1.381334188E1,4.191733246E0,-5.862259369E0,4.395908661E0,8.441606806E0
1.382338188E1,4.211342468E0,-4.956343231E0,4.296365662E0,7.794838132E0
1.383342088E1,3.973038025E0,-4.247866516E0,4.215384064E0,7.183234918E0
1.384345988E1,3.700754242E0,-3.774999847E0,4.229754181E0,6.770304737E0
1.385349888E1,3.586841125E0,-3.524121552E0,4.138593750E0,6.512512587E0
1.386353787E1,3.739224243E0,-3.589685211E0,3.590733032E0,6.305632527E0
1.387357787E1,4.342020721E0,-4.076023865E0,2.989732819E0,6.663753958E0
1.388361687E1,5.209466858E0,-4.794380035E0,2.859952698E0,7.635702607E0
1.389365587E1,6.190077667E0,-5.577850800E0,2.779569855E0,8.783819764E0
1.390369487E1,7.504943390E0,-6.206393738E0,2.357297974E0,1.001999762E1
1.391373488E1,1.049287994E1,-6.597530365E0,-2.746788025E0,1.269538424E1
1.392377388E1,1.658042084E1,-6.606511688E0,-2.663980225E1,3.206611008E1
1.393381288E1,2.014465897E1,-8.324189758E0,-2.700369553E1,3.470301128E1
1.394385188E1,1.972747650E1,-1.082264420E1,-1.816951630E1,2.892117354E1
1.395389088E1,1.772464142E1,-1.188438629E1,-1.621997040E1,2.680464495E1
1.396393087E1,1.436173462E1,-1.052491333E1,-1.139475449E1,2.113938627E1
1.397396987E1,1.057460999E1,-7.895630951E0,-8.955726471E0,1.594893103E1
1.398400887E1,7.810458069E0,-5.800587616E0,-7.092401276E0,1.203961078E1
1.399404787E1,6.739435272E0,-4.992867279E0,-4.262086945E0,9.408193056E0
1.400408688E1,7.364385681E0,-5.918692017E0,-3.831881561E0,1.019550920E1
1.401412688E1,8.484057312E0,-8.363108826E0,-6.195017395E0,1.342754848E1
1.402416588E1,8.540789337E0,-1.088596252E1,-5.568570099E0,1.491503388E1
1.403420488E1,7.292235718E0,-1.192704758E1,-1.264420624E0,1.403673485E1
1.404424388E1,4.558620300E0,-1.125045456E1,2.802023163E0,1.245813311E1
1.405428287E1,2.961291962E0,-8.746162262E0,5.739215240E0,1.087212932E1
1.406432287E1,3.005749512E0,-6.352938995E0,6.153104553E0,9.341041679E0
1.407436187E1,2.769391022E0,-4.972359924E0,5.270090790E0,7.756787143E0
1.408440087E1,2.484982452E0,-4.157454529E0,4.927004242E0,6.909047456E0
1.409443987E1,2.449356537E0,-3.814667358E0,4.801415405E0,6.603379771E0
1.410447888E1,2.919229431E0,-4.286935272E0,4.606520691E0,6.936839870E0
1.411451888E1,3.753594360E0,-5.710025940E0,4.466711426E0,8.163662035E0
1.412455788E1,5.201533356E0,-8.102201385E0,4.839586029E0,1.077604795E1
1.413459688E1,6.704108734E0,-1.109328140E1,5.640570374E0,1.413584098E1
1.414463588E1,6.838978271E0,-1.335148544E1,5.338049469E0,1.592258018E1
1.415467487E1,5.924380188E0,-1.479673004E1,4.471202087E0,1.655394662E1
1.416471487E1,4.717889099E0,-1.548544785E1,3.802841949E0,1.662886585E1
1.417475387E1,3.864364014E0,-1.545715668E1,3.510350189E0,1.631501027E1
1.418479287E1,3.138673096E0,-1.505120087E1,3.239413605E0,1.571253375E1
1.419483188E1,2.669548645E0,-1.429317719E1,2.884052582E0,1.482360156E1
1.420487088E1,2.257904663E0,-1.323098602E1,1.206790466E0,1.347640411E1
1.421491088E1,1.157842255E0,-1.162871796E1,-4.635111237E0,1.257187083E1
1.422494988E1,1.290316772E0,-1.027792694E1,-6.309529266E0,1.212892655E1
1.423498888E1,2.108515320E0,-9.642348633E0,-3.643273773E0,1.052112959E1
1.424502787E1,2.758014679E0,-9.430988159E0,-9.372010803E-1,9.870589065E0
1.425506787E1,2.897075500E0,-9.398356018E0,5.158273315E-1,9.848259752E0
1.426510687E1,2.582429810E0,-9.700278168E0,1.027912445E0,1.009063646E1
1.427514587E1,2.270179138E0,-9.693392487E0,1.266216888E0,1.003587945E1
1.428518487E1,2.352058868E0,-9.328152008E0,1.725461884E0,9.773628779E0
1.429522388E1,2.622396698E0,-8.921447754E0,2.091151428E0,9.531112672E0
1.430526388E1,2.725831604E0,-8.333320770E0,2.161355438E0,9.030274100E0
1.431530746E1,2.843337250E0,-7.637417908E0,2.114951935E0,8.419485774E0
1.432534646E1,2.790197754E0,-7.057823181E0,2.072440338E0,7.867215550E0
1.433538546E1,2.641856232E0,-6.459816742E0,1.801503754E0,7.207915958E0
1.434542446E1,2.887196045E0,-5.833369446E0,1.347198486E0,6.646731818E0
1.435546446E1,3.506607971E0,-5.300627289E0,6.213578796E-1,6.385846438E0
1.436550346E1,4.523293762E0,-5.058580627E0,-6.277944946E-1,6.814950502E0
1.437554246E1,5.704337769E0,-5.279221802E0,-2.239193573E0,8.088488120E0
1.438558146E1,6.564898224E0,-5.704038391E0,-3.306025085E0,9.303963915E0
1.439562046E1,6.622079315E0,-6.212081909E0,-3.040177917E0,9.575206414E0
1.440566046E1,5.929619293E0,-6.713988190E0,-1.687890015E0,9.115206804E0
1.441569946E1,4.924758911E0,-7.063511353E0,-1.811233521E-2,8.610851933E0
1.442573846E1,4.149670715E0,-7.228468323E0,1.324894867E0,8.439541916E0
1.443577746E1,3.875590668E0,-7.363936615E0,1.999691620E0,8.558418783E0
1.444581646E1,4.103865967E0,-7.676187286E0,2.293530579E0,9.001435977E0
1.445585646E1,4.683760071E0,-8.311615906E0,2.443368988E0,9.848381561E0
1.446589546E1,5.369633789E0,-9.389374695E0,2.520608368E0,1.110616004E1
1.447593446E1,5.899232483E0,-1.051114197E1,2.478994904E0,1.230570864E1
1.448597346E1,6.151008911E0,-1.121108643E1,2.038760376E0,1.294912790E1
1.449601346E1,6.000122681E0,-1.117980148E1,1.075513458E0,1.273366258E1
1.450605246E1,5.380411377E0,-1.064451462E1,-4.610412598E-1,1.193595732E1
1.451609146E1,4.653373260E0,-1.027687912E1,-3.732488251E0,1.188274361E1
1.452613046E1,4.094734955E0,-1.045905029E1,-7.890691223E0,1.372667459E1
1.453616946E1,3.606150970E0,-1.137484589E1,-8.224646759E0,1.449262771E1
1.454620946E1,3.260220337E0,-1.234767288E1,-4.647685089E0,1.359025529E1
1.455624846E1,2.987936554E0,-1.290586212E1,-8.499325562E-1,1.327446524E1
1.456628746E1,2.665956116E0,-1.308174637E1,1.232087860E0,1.340736553E1
1.457632646E1,2.363285522E0,-1.313638275E1,1.636397095E0,1.344721033E1
1.458636546E1,2.028132477E0,-1.302426590E1,1.361867981E0,1.325139645E1
1.459640546E1,1.978585510E0,-1.264555344E1,8.906478882E-1,1.283035759E1
1.460644446E1,2.420765991E0,-1.232162704E1,2.787203979E-1,1.256026616E1
1.461648346E1,3.346141663E0,-1.204649918E1,-6.692582703E-1,1.252049173E1
1.462652246E1,4.808450775E0,-1.167527115E1,-2.176923065E0,1.281296801E1
1.463656146E1,6.294859772E0,-1.128218857E1,-3.692970428E0,1.343692930E1
1.464660146E1,6.983876953E0,-1.142124939E1,-3.925437012E0,1.395093297E1
1.465664046E1,7.106921082E0,-1.211879883E1,-2.486329651E0,1.426728592E1
1.466667946E1,7.316634979E0,-1.259510834E1,-6.387217712E-1,1.458005031E1
1.467671846E1,7.684420166E0,-1.271725433E1,1.261576538E0,1.491209061E1
1.468675846E1,7.881260834E0,-1.270408173E1,3.471730499E0,1.534799262E1
1.469679746E1,8.505013733E0,-1.257639725E1,4.792134705E0,1.592060242E1
1.470683646E1,9.526040497E0,-1.241009308E1,5.235961761E0,1.649761053E1
1.471687546E1,1.027029282E1,-1.234423004E1,5.049599304E0,1.683322260E1
1.472691446E1,1.027523254E1,-1.219379288E1,4.254452820E0,1.650361649E1
1.473695446E1,9.966125336E0,-1.160371994E1,3.290008392E0,1.564589805E1
1.474699346E1,9.328301697E0,-1.092742630E1,2.629731445E0,1.460620914E1
1.475703246E1,8.794811096E0,-1.020697449E1,2.034269714E0,1.362605165E1
1.476707146E1,8.435109100E0,-9.533225555E0,1.694027252E0,1.284146344E1
1.477711046E1,7.635172577E0,-9.124725037E0,1.594035187E0,1.200405829E1
1.478715046E1,6.547534332E0,-8.982371063E0,1.612446899E0,1.123179330E1
1.479718946E1,5.510041809E0,-9.019643555E0,1.880240021E0,1.073544750E1
1.480722846E1,4.705764313E0,-9.034462738E0,2.996319122E0,1.061808189E1
1.481726746E1,3.889062653E0,-8.778195648E0,3.564387817E0,1.024140555E1
1.482730746E1,3.607498169E0,-8.420289917E0,3.093616791E0,9.668805002E0
1.483734646E1,3.386557617E0,-8.091124420E0,2.719394989E0,9.183146301E0
1.484738546E1,3.060385895E0,-7.843239899E0,2.326312408E0,8.734649584E0
1.485742446E1,2.908002777E0,-7.591613159E0,2.002236328E0,8.372456081E0
1.486746346E1,2.896626434E0,-7.407346344E0,1.721420288E0,8.137721571E0
1.487750346E1,3.025358734E0,-7.273225250E0,1.547931061E0,8.027994244E0
1.488754246E1,3.154689789E0,-7.125183105E0,1.507814484E0,7.936863768E0
1.489758146E1,3.280128937E0,-6.904392242E0,1.434317322E0,7.777348151E0
1.490762046E1,3.242257690E0,-6.630761261E0,1.271905060E0,7.489791206E0
1.491765946E1,3.113974457E0,-6.444249115E0,1.117426300E0,7.243881909E0
1.492769946E1,2.953358459E0,-6.241271210E0,1.132245483E0,6.996983088E0
1.493773846E1,2.779420166E0,-5.979166260E0,1.300345917E0,6.720603033E0
1.494777746E1,2.649190979E0,-5.763913879E0,1.568737793E0,6.534665586E0
1.495781646E1,2.529290314E0,-5.591771851E0,1.897753601E0,6.423915523E0
1.496785546E1,2.358944550E0,-5.433251495E0,2.076931000E0,6.276821136E0
1.497789546E1,2.037263489E0,-5.194198608E0,1.866019592E0,5.883210928E0
1.498793446E1,1.772763519E0,-4.873265991E0,1.452579346E0,5.385294669E0
1.499797346E1,1.603914642E0,-4.560715942E0,1.049916687E0,4.947221153E0
1.500801246E1,1.603315887E0,-4.344266052E0,8.033793640E-1,4.699860399E0
1.501805246E1,1.682501221E0,-4.237238617E0,6.141728210E-1,4.600240179E0
1.502809146E1,1.621278534E0,-4.169579315E0,4.637356567E-1,4.497664562E0
1.503813046E1,1.643282776E0,-4.132905579E0,8.657995605E-1,4.531103142E0
1.504816946E1,1.898202667E0,-4.334685974E0,1.625170441E0,5.003384337E0
1.505820846E1,2.392175446E0,-4.778213654E0,1.906585236E0,5.673525918E0
1.506824846E1,2.952460327E0,-5.415438538E0,1.754651184E0,6.412705928E0
1.507828746E1,3.300037537E0,-6.208190002E0,6.957531738E-1,7.065121607E0
1.508832646E1,2.660417633E0,-7.525750122E0,-8.228388977E0,1.146390518E1
1.509836546E1,4.603377228E0,-9.213041382E0,-2.473157043E1,2.679033015E1
1.510840446E1,1.161330002E1,-1.147872986E1,-2.519306076E1,3.002199672E1
1.511844446E1,1.805036407E1,-1.363649277E1,-1.753842865E1,2.862457087E1
1.512848346E1,2.165621567E1,-1.439182205E1,-1.172856033E1,2.852499512E1
1.513852246E1,2.319127350E1,-1.433074905E1,-7.652386780E0,2.831544735E1
1.514856146E1,2.160157928E1,-1.264675095E1,-5.006938019E0,2.552720050E1
1.515860146E1,1.831681000E1,-9.842332764E0,-3.655997314E0,2.111263506E1
1.516864046E1,1.577285019E1,-7.470065918E0,-2.037862244E0,1.757092970E1
1.517867946E1,1.386042709E1,-5.656886444E0,-2.514770508E-2,1.497038529E1
1.518871846E1,1.259435989E1,-4.305796051E0,1.504221954E0,1.339479244E1
1.519875746E1,1.114477432E1,-3.769760742E0,2.723286896E0,1.207614931E1
1.520879746E1,8.041876831E0,-3.914659424E0,2.180665283E0,9.206065525E0
1.521883646E1,4.367467804E0,-5.068310394E0,3.035687256E-1,6.697365097E0
1.522887546E1,2.151026917E0,-6.490802307E0,-6.595285034E-1,6.869673153E0
1.523891446E1,1.351389771E0,-7.003037109E0,9.719288635E-1,7.198154540E0
1.524895446E1,1.459165649E0,-6.856192474E0,3.258274384E0,7.729999456E0
1.525899346E1,1.233884125E0,-7.269932098E0,4.274810486E0,8.523402339E0
1.526903246E1,6.993457031E-1,-8.468938751E0,5.003944244E0,9.861615790E0
1.527907146E1,7.696994019E-1,-1.000369720E1,5.229225769E0,1.131420333E1
1.528911046E1,1.403930511E0,-1.135433853E1,4.939129028E0,1.246142126E1
1.529915046E1,1.826651459E0,-1.214993408E1,4.931045837E0,1.323906216E1
1.530918946E1,2.093995514E0,-1.266396515E1,5.197042694E0,1.384810757E1
1.531922350E1,2.308798828E0,-1.291678940E1,5.197940826E0,1.411356047E1
1.532926250E1,2.491718445E0,-1.281425262E1,4.994364166E0,1.397703132E1
1.533930150E1,2.052681427E0,-1.259031830E1,4.795128479E0,1.362801794E1
1.534934150E1,1.143172760E0,-1.203661972E1,4.805157623E0,1.301063404E1
1.535938050E1,7.382647705E-1,-1.110780121E1,4.704117737E0,1.208540468E1
1.536941950E1,7.457492065E-1,-1.019035904E1,4.171974335E0,1.103652704E1
1.537945850E1,6.999444580E-1,-9.270222473E0,3.636837158E0,9.982661542E0
1.538949850E1,1.004561005E0,-8.396938477E0,3.058589630E0,8.992924392E0
1.539953750E1,1.397643585E0,-7.814948730E0,2.470312958E0,8.314401804E0
1.540957650E1,1.761686554E0,-7.787705383E0,1.904489594E0,8.208469727E0
1.541961550E1,2.115850067E0,-8.122708740E0,1.538949738E0,8.533673598E0
1.542965450E1,2.512974243E0,-8.584348755E0,1.367556152E0,9.048551979E0
1.543969450E1,2.991080017E0,-9.144034882E0,1.194066925E0,9.694623737E0
1.544973350E1,3.468437347E0,-9.695787506E0,1.078058167E0,1.035377044E1
1.545977250E1,3.760030975E0,-1.008393036E1,3.576063538E-1,1.076807163E1
1.546981150E1,4.199067993E0,-1.017718643E1,-3.336112518E0,1.150377948E1
1.547985050E1,4.590354309E0,-1.002734802E1,-6.857389984E0,1.298625652E1
1.548989050E1,4.492906952E0,-9.677226105E0,-5.982609100E0,1.223219235E1
1.549992950E1,4.282594299E0,-9.404792633E0,-3.791315918E0,1.100748903E1
1.550996850E1,4.385580139E0,-9.104517059E0,-1.996398468E0,1.030102669E1
1.552000750E1,4.397255859E0,-8.815767517E0,-1.969903564E-1,9.853548661E0
1.553004750E1,4.131708069E0,-8.854985962E0,1.430724792E0,9.875665111E0
1.554008650E1,3.454965363E0,-8.892557831E0,2.310595093E0,9.815967610E0
1.555012550E1,2.847229156E0,-8.580606537E0,2.465373230E0,9.370783722E0
1.556016450E1,2.626587982E0,-8.127947845E0,2.496358795E0,8.899118374E0
1.557020350E1,2.715503082E0,-7.763006744E0,2.533631287E0,8.605667795E0
1.558024350E1,3.020419006E0,-7.500153351E0,2.508782959E0,8.465767726E0
1.559028250E1,3.470233612E0,-7.485783234E0,2.437980194E0,8.603674760E0
1.560032150E1,3.979923706E0,-7.774832153E0,2.254761200E0,9.020629456E0
1.561036050E1,4.434079285E0,-8.294701080E0,1.949246521E0,9.605346798E0
1.562039950E1,4.879103851E0,-8.870104523E0,1.675615540E0,1.026119370E1
1.563043950E1,5.301675110E0,-9.464069366E0,1.584155731E0,1.096293379E1
1.564047850E1,5.830974426E0,-1.003213806E1,1.977238312E0,1.177087627E1
1.565051750E1,6.419849854E0,-1.028900391E1,2.098186798E0,1.230773990E1
1.566055650E1,6.761439514E0,-9.697284393E0,-7.185058594E-1,1.184359065E1
1.567059650E1,6.691085815E0,-8.683592377E0,-9.078321533E0,1.423345804E1
1.568063550E1,6.704108734E0,-7.866142273E0,-1.587329132E1,1.894155869E1
1.569067450E1,6.675368500E0,-7.865543518E0,-9.978100433E0,1.435234502E1
1.570071350E1,5.931116180E0,-8.919501801E0,-1.731299744E0,1.085048618E1
1.571075250E1,4.380939789E0,-1.020697449E1,1.860481110E0,1.126216460E1
1.572079250E1,2.990780640E0,-1.085841980E1,1.983674927E0,1.143612765E1
1.573083150E1,2.395767975E0,-1.142678787E1,1.483415222E0,1.176909963E1
1.574087050E1,2.067799988E0,-1.200593353E1,1.347647552E0,1.225701394E1
1.575090950E1,1.932930450E0,-1.246023880E1,1.342408447E0,1.268052962E1
1.576094950E1,1.828597412E0,-1.281634827E1,1.313967590E0,1.301265008E1
1.577098850E1,1.737586670E0,-1.294523026E1,8.574169922E-1,1.308943687E1
1.578102750E1,2.073039093E0,-1.259705429E1,-1.005608826E0,1.280603440E1
1.579106650E1,3.120261383E0,-1.194321396E1,-4.418212280E0,1.311094926E1
1.580110550E1,4.606820068E0,-1.136197266E1,-7.516319733E0,1.438096923E1
1.581114550E1,5.686375122E0,-1.150133286E1,-6.895410919E0,1.456578907E1
1.582118450E1,5.632038116E0,-1.263327896E1,-3.591481476E0,1.429049789E1
1.583122350E1,5.502856750E0,-1.396835266E1,-1.824705505E-1,1.501431330E1
1.584126250E1,5.941744080E0,-1.477203140E1,2.039508820E0,1.605231543E1
1.585130150E1,7.003336487E0,-1.450543579E1,3.032094727E0,1.639048467E1
1.586134150E1,8.041427765E0,-1.355596024E1,3.911965027E0,1.623983032E1
1.587138050E1,8.677305450E0,-1.242685822E1,4.478686523E0,1.580446355E1
1.588141950E1,9.029223633E0,-1.140643021E1,4.501738586E0,1.522823627E1
1.589145850E1,9.216334534E0,-1.069481003E1,4.276157684E0,1.475145106E1
1.590149850E1,9.157057800E0,-1.021924896E1,4.246070251E0,1.436363009E1
1.591153750E1,9.035809937E0,-9.721683655E0,4.266876984E0,1.394142150E1
1.592157650E1,8.956175537E0,-9.157357178E0,3.846251678E0,1.337400175E1
1.593161550E1,9.735604706E0,-8.337362366E0,1.677411804E0,1.292699967E1
1.594165450E1,1.071501801E1,-7.187303925E0,-1.061442719E0,1.294587228E1
1.595169450E1,9.921817474E0,-6.513405304E0,-2.517764282E-1,1.187140691E1
1.596173350E1,8.397686920E0,-6.610104218E0,9.211843872E-1,1.072675179E1
1.597177250E1,7.119644623E0,-6.950496368E0,1.353635101E0,1.004146739E1
1.598181150E1,5.604345703E0,-7.356152802E0,1.355431366E0,9.346596653E0
1.599185150E1,4.259691925E0,-7.752378845E0,1.337319031E0,8.946103914E0
1.600189050E1,3.595972137E0,-7.996970215E0,1.448986816E0,8.887188027E0
1.601192950E1,3.210972748E0,-8.158334656E0,1.395398254E0,8.877832316E0
1.602196850E1,2.853067017E0,-8.317902832E0,9.824070740E-1,8.848311849E0
1.603200750E1,2.537223816E0,-8.454718323E0,7.093748474E-1,8.855674976E0
1.604204750E1,2.326761475E0,-8.600066071E0,8.559201050E-1,8.950282376E0
1.605208650E1,2.325713654E0,-8.581504669E0,9.283694458E-1,8.939409165E0
1.606212550E1,2.540067902E0,-8.360115051E0,7.788304138E-1,8.772117500E0
1.607216450E1,2.762655029E0,-8.053253174E0,6.620732117E-1,8.539642289E0
1.608220350E1,2.855162659E0,-7.742499390E0,8.431965637E-1,8.295132974E0
1.609224350E1,2.748284912E0,-7.443121948E0,1.257085876E0,8.033268276E0
1.610228250E1,2.617606659E0,-7.013215942E0,1.550326080E0,7.644643447E0
1.611232150E1,2.499951324E0,-6.557114410E0,1.459165649E0,7.167612602E0
1.612236050E1,2.369422760E0,-6.226452026E0,1.410067749E0,6.809637296E0
1.613240050E1,2.106269989E0,-6.032305756E0,1.431024170E0,6.547741303E0
1.614243950E1,1.843416595E0,-5.883215790E0,1.387015686E0,6.319353233E0
1.615247850E1,1.626068573E0,-5.766159210E0,1.332379303E0,6.137420113E0
1.616251750E1,1.382974091E0,-5.723497925E0,1.218765564E0,6.013022146E0
1.617255650E1,1.079704742E0,-5.729635162E0,7.942483521E-1,5.884327648E0
1.618259650E1,1.098266144E0,-5.666466522E0,5.022056580E-1,5.793724354E0
1.619263550E1,2.004481659E0,-5.605243835E0,1.163979492E0,6.065604128E0
1.620267450E1,3.017724609E0,-5.930816803E0,1.612446899E0,6.846987277E0
1.621271350E1,3.679648132E0,-6.550977173E0,1.399888916E0,7.642957626E0
1.622275350E1,3.945195923E0,-7.455097046E0,-2.689906311E-1,8.438921661E0
1.623279250E1,3.131188660E0,-8.990903320E0,-8.308771820E0,1.263631173E1
1.624283150E1,5.043462067E0,-1.027717850E1,-1.826591583E1,2.155691510E1
1.625287050E1,1.138921600E1,-1.023451721E1,-1.587403976E1,2.205549188E1
1.626290950E1,1.701601501E1,-9.470655670E0,-1.125329865E1,2.249166104E1
1.627294950E1,2.047831512E1,-7.877518616E0,-1.183918030E1,2.493156393E1
1.628298850E1,2.068997498E1,-6.424939270E0,-9.310788116E0,2.358062095E1
1.629302750E1,1.909608948E1,-4.673730927E0,-6.538403320E0,2.071847273E1
1.630306650E1,1.619931335E1,-2.910248108E0,-4.545298004E0,1.707474835E1
1.631310650E1,1.298370026E1,-1.542691956E0,-2.014061737E0,1.322924093E1
1.632314596E1,1.106588837E1,-8.869056702E-1,-7.559280396E-2,1.110163057E1
1.633318496E1,1.188019501E1,-1.310375061E0,-8.975335693E-1,1.198589516E1
1.634322396E1,1.330672852E1,-2.845133514E0,-1.900897064E0,1.373962220E1
1.635326296E1,1.014590149E1,-4.574038239E0,2.147434387E0,1.133457618E1
1.636330296E1,6.066734161E0,-5.820196838E0,6.273903351E0,1.049008188E1
1.637334196E1,4.516408081E0,-6.785689087E0,6.543043671E0,1.045250873E1
1.638338096E1,3.809727631E0,-7.575297089E0,5.644013214E0,1.018597250E1
1.639341996E1,3.109783173E0,-8.867559814E0,4.172573090E0,1.028176710E1
1.640345996E1,1.948348389E0,-1.055844360E1,2.653232574E0,1.105967612E1
1.641349896E1,1.173260193E0,-1.211161377E1,2.147733765E0,1.235639462E1
1.642353796E1,3.393443298E-1,-1.359637619E1,6.815327454E-1,1.361767553E1
1.643357696E1,5.948629761E-1,-1.441756851E1,1.010997620E0,1.446520860E1
1.644361596E1,1.595382385E0,-1.472083786E1,3.393443298E0,1.519091076E1
1.645365596E1,1.739532623E0,-1.504221954E1,4.136498108E0,1.569729146E1
1.646369496E1,1.229243774E0,-1.505643997E1,4.247417450E0,1.569229046E1
1.647373396E1,5.724096680E-1,-1.493908401E1,4.354893951E0,1.557141565E1
1.648377296E1,1.062789917E-2,-1.446546890E1,4.499493256E0,1.514910371E1
1.649381296E1,-8.876541138E-2,-1.356389374E1,4.206103363E0,1.420135198E1
1.650385196E1,4.590953064E-1,-1.236922806E1,3.535797272E0,1.287285647E1
1.651389096E1,9.530680847E-1,-1.115899475E1,2.923420715E0,1.157488191E1
1.652392996E1,1.463057556E0,-1.000908600E1,2.412832489E0,1.039923558E1
1.653396896E1,2.123184814E0,-9.053024139E0,2.037712555E0,9.519318898E0
1.654400896E1,2.814896393E0,-8.392896881E0,1.631607056E0,9.001472176E0
1.655404796E1,3.673361206E0,-7.689808960E0,4.761598206E-1,8.535424569E0
1.656408696E1,4.635560303E0,-7.429799652E0,-1.258433075E0,8.847259236E0
1.657412596E1,5.239404602E0,-7.692054291E0,-2.435435486E0,9.620312147E0
1.658416496E1,5.548362122E0,-7.959548035E0,-2.564467163E0,1.003569723E1
1.659420496E1,5.377118225E0,-8.199798431E0,-1.659000092E0,9.944967372E0
1.660424396E1,4.830904083E0,-8.288563843E0,-4.525090027E-1,9.604305765E0
1.661428296E1,4.129013672E0,-8.315807190E0,5.053491211E-1,9.298213853E0
1.662432196E1,3.632047119E0,-8.262368317E0,9.175918579E-1,9.071960719E0
1.663436196E1,3.357817383E0,-8.186176758E0,8.319699097E-1,8.887103095E0
1.664440096E1,3.244353333E0,-8.090525665E0,5.063969421E-1,8.731487385E0
1.665443996E1,3.272794189E0,-7.982151031E0,1.877096558E-1,8.629087542E0
1.666447896E1,3.365152130E0,-7.907456360E0,1.257385254E-2,8.593734523E0
1.667451796E1,3.526965637E0,-7.870632935E0,-9.654922485E-2,8.625292525E0
1.668455796E1,3.680097198E0,-7.884104919E0,-2.369572449E-1,8.703928682E0
1.669459696E1,3.862867126E0,-8.079748077E0,-2.900967407E-1,8.960369833E0
1.670463596E1,3.984863434E0,-8.292455750E0,-1.326242065E-1,9.201171019E0
1.671467496E1,3.970643005E0,-8.407716064E0,1.781295776E-1,9.299861582E0
1.672471496E1,3.936963043E0,-8.438851318E0,5.228627014E-1,9.326696896E0
1.673475396E1,3.954476624E0,-8.277935944E0,8.782237244E-1,9.215931085E0
1.674479296E1,4.004472656E0,-8.154592438E0,1.178798676E0,9.160935836E0
