"Time (s)","Acceleration x (m/s^2)","Acceleration y (m/s^2)","Acceleration z (m/s^2)","Absolute acceleration (m/s^2)"
-1.030375002E-3,1.440903625E0,2.258952484E0,9.068142700E0,9.455701011E0
9.009624999E-3,1.333277435E0,2.354753265E0,8.774154053E0,9.181953550E0
1.904862500E-2,1.280137939E0,2.336042175E0,8.598120117E0,9.001306335E0
2.908862500E-2,1.395098877E0,2.176773376E0,8.466543732E0,8.852514104E0
3.912762500E-2,1.597927094E0,2.115401001E0,8.898994446E0,9.285493769E0
4.916762500E-2,2.007325745E0,1.935026093E0,1.010398865E1,1.048161577E1
5.920662500E-2,2.144739990E0,1.696122894E0,1.088910599E1,1.122717114E1
6.924662500E-2,2.183209991E0,1.832040253E0,1.081501007E1,1.118423981E1
7.928562500E-2,2.307152252E0,2.067051544E0,9.996362457E0,1.046531968E1
8.932462500E-2,2.232756958E0,2.092348938E0,8.811276855E0,9.327471658E0
9.936462500E-2,1.985171814E0,1.927391968E0,7.823630676E0,8.298490458E0
1.094036250E-1,1.657203827E0,1.343306580E0,7.633526001E0,7.926002542E0
1.194433750E-1,1.442999268E0,2.227368164E-1,7.945327606E0,8.078371701E0
1.294823750E-1,1.418600006E0,-9.568103027E-1,8.252788239E0,8.428310960E0
1.395223750E-1,1.112037506E0,-1.884281616E0,8.120463409E0,8.410057705E0
1.495613750E-1,9.128018188E-1,-1.891017609E0,7.614814911E0,7.899022780E0
1.596003750E-1,1.148711243E0,-5.406756592E-1,8.185877380E0,8.283746506E0
1.696403750E-1,2.923570404E0,-7.188052368E-1,9.214987335E0,9.694324962E0
1.796793750E-1,4.561314697E0,-2.143093414E0,1.032867142E1,1.149260172E1
1.897193750E-1,5.213658142E0,-2.758763123E0,1.169742508E1,1.310048696E1
1.997583750E-1,5.929020538E0,-3.025957489E0,1.203691910E1,1.375489457E1
2.097983750E-1,5.939199371E0,-3.500021667E0,1.109298203E1,1.306057009E1
2.198373750E-1,5.176535339E0,-3.752247162E0,8.922944641E0,1.097701316E1
2.298773750E-1,4.272565155E0,-3.568429413E0,6.932384033E0,8.890807042E0
2.399163750E-1,3.243455200E0,-3.294648743E0,6.157146149E0,7.699685751E0
2.499553750E-1,2.617157593E0,-3.291205902E0,5.571114807E0,6.979890425E0
2.599953750E-1,2.419269104E0,-3.603306885E0,4.927602997E0,6.566426334E0
2.700343750E-1,2.511177979E0,-4.038451996E0,4.271966400E0,6.392558665E0
2.800743750E-1,3.121009827E0,-4.781656494E0,3.601809998E0,6.751146304E0
2.901133750E-1,3.551963654E0,-5.758375397E0,4.386927338E0,8.063526801E0
3.001533750E-1,2.888543243E0,-6.912625122E0,6.536307678E0,9.942403442E0
3.101923750E-1,1.914069672E0,-7.790998535E0,6.994205475E0,1.064341257E1
3.202323750E-1,2.216291199E0,-8.353678436E0,7.773784332E0,1.162444033E1
3.302713750E-1,3.062631226E0,-8.887019348E0,6.618786163E0,1.149639740E1
3.403103750E-1,3.898043976E0,-9.230854340E0,4.615502014E0,1.103205681E1
3.503503750E-1,4.468208313E0,-9.104816437E0,2.467169495E0,1.043788739E1
3.603893750E-1,4.611610107E0,-9.184899902E0,1.695524139E0,1.041653187E1
3.704293750E-1,5.639821930E0,-9.832602997E0,2.470312958E0,1.160129817E1
3.804683750E-1,6.380781097E0,-1.033780243E1,6.136638794E0,1.361039537E1
3.905083750E-1,7.930358734E0,-1.102083206E1,8.840915222E0,1.620219463E1
4.005473750E-1,1.012434631E1,-1.140613083E1,1.039393570E1,1.845632976E1
4.105863750E-1,1.272743317E1,-1.114806747E1,1.319476135E1,2.145620401E1
4.206263750E-1,1.461485825E1,-1.042297531E1,1.607132950E1,2.409398530E1
4.306653750E-1,1.385204453E1,-9.670340424E0,1.734937180E1,2.421560082E1
4.407053750E-1,1.257460098E1,-8.824000397E0,1.588930801E1,2.210098826E1
4.507443750E-1,1.201820801E1,-8.130043488E0,1.283805313E1,1.937396550E1
4.607843750E-1,1.138382721E1,-8.010442200E0,9.787846069E0,1.701648133E1
4.708233750E-1,1.122395966E1,-7.113208008E0,8.907077637E0,1.599721946E1
4.808633750E-1,1.264076340E1,-5.423671417E0,1.033944901E1,1.720782719E1
4.909023750E-1,1.464958603E1,-3.919898529E0,1.280512161E1,1.984810104E1
5.009413750E-1,1.482232681E1,-3.383563843E0,1.474029739E1,2.117607716E1
5.109813750E-1,1.408525955E1,-3.150498505E0,1.508203674E1,2.087553616E1
5.210203750E-1,1.237027588E1,-2.750530243E0,1.363095428E1,1.861161080E1
5.310603750E-1,9.709109802E0,-2.314636688E0,1.104193817E1,1.488451392E1
5.410993750E-1,7.500452728E0,-2.539169769E0,8.035440216E0,1.128151026E1
5.511393750E-1,4.991819458E0,-2.423759766E0,2.378703461E0,6.037474891E0
5.611783750E-1,3.402424622E0,-1.857637024E0,1.030307465E0,4.011089888E0
5.712173750E-1,3.381767578E0,-6.248007202E-1,-5.532495117E-1,3.483218758E0
5.812573750E-1,4.011807404E0,-2.932402039E-1,-1.264570312E0,4.216601301E0
5.912963750E-1,4.979095917E0,-7.185058594E-1,-2.120490417E0,5.459315564E0
6.013363750E-1,5.029241638E0,-2.371069336E-1,-4.437073059E0,6.710969266E0
6.113753750E-1,4.793032837E0,-1.307381287E0,-3.091221771E0,5.851329904E0
6.214153750E-1,3.710334320E0,-3.240910492E0,6.508465576E-1,4.969273873E0
6.314543750E-1,1.816023560E0,-4.733606415E0,3.719914398E0,6.288301391E0
6.414933750E-1,2.261646881E0,-5.068160706E0,6.024222565E0,8.191004643E0
6.515333750E-1,4.084556122E0,-4.347559204E0,5.136269073E0,7.871856817E0
6.615723750E-1,3.670068054E0,-4.042493591E0,3.335364075E0,6.398109679E0
6.716123750E-1,3.539838867E0,-4.330494690E0,3.729793854E0,6.722723083E0
6.816513750E-1,3.257825317E0,-6.198310547E0,5.265450439E0,8.761132790E0
6.916913750E-1,1.867516479E0,-7.869734802E0,5.096751251E0,9.560189170E0
7.017303750E-1,1.256487122E0,-7.851472778E0,5.888005829E0,9.894089009E0
7.117693750E-1,1.238225098E0,-7.934999084E0,6.429878998E0,1.028789365E1
7.218093750E-1,1.298250275E0,-7.319479065E0,6.354286194E0,9.779426394E0
7.318483750E-1,2.558180237E-1,-7.367828522E0,5.595065002E0,9.255003640E0
7.418883750E-1,9.494755554E-1,-9.088500366E0,5.275030518E0,1.055122219E1
7.519273750E-1,1.865121460E0,-8.418643341E0,5.004992065E0,9.970064159E0
7.619673750E-1,1.999092865E0,-7.977660370E0,3.906426544E0,9.104922054E0
7.720063750E-1,1.795216827E0,-8.366701355E0,3.939208374E0,9.420289679E0
7.820463750E-1,1.252146149E0,-9.530830536E0,4.789140930E0,1.073966813E1
7.920853750E-1,1.187779999E0,-9.602232056E0,4.909640350E0,1.084980415E1
8.021243750E-1,1.128054199E0,-9.561816101E0,4.723128204E0,1.072421435E1
8.121643750E-1,9.410929871E-1,-9.485175476E0,5.452112274E0,1.098088057E1
8.222033750E-1,1.283431091E0,-9.419312439E0,5.974076843E0,1.122765498E1
8.322433750E-1,1.802850952E0,-9.237590332E0,5.068310394E0,1.068976693E1
8.422823750E-1,1.053509216E0,-9.787097626E0,4.847369843E0,1.097242708E1
8.523223750E-1,1.125659180E0,-1.007584717E1,5.720354462E0,1.164097332E1
8.623613750E-1,1.315165100E0,-1.018197647E1,5.782175903E0,1.178286308E1
8.724003750E-1,8.114625549E-1,-1.039722885E1,5.129832458E0,1.162222097E1
8.824403750E-1,-1.223256226E0,-1.120240448E1,4.625980225E0,1.218153993E1
8.924793750E-1,-2.823278961E0,-1.286035675E1,7.621401215E0,1.521333088E1
9.025193750E-1,-3.524570618E0,-1.273461823E1,1.206565933E1,1.789338522E1
9.125583750E-1,-4.142635345E0,-1.114582214E1,1.159967834E1,1.661154167E1
9.225983750E-1,-1.935924225E0,-1.001552261E1,6.418053589E0,1.205196696E1
9.326373750E-1,8.936416626E-2,-8.772208099E0,3.170706482E0,9.328075926E0
9.426763750E-1,2.050436096E0,-7.662116547E0,2.615960083E0,8.351979724E0
9.527163750E-1,4.032464447E0,-6.952442322E0,3.108885040E0,8.617562878E0
9.627553750E-1,1.078162949E1,-5.296885071E0,6.089486847E0,1.346782744E1
9.727953750E-1,1.013512390E1,-4.099524994E0,4.064348145E0,1.166386589E1
9.828343750E-1,3.963907013E0,-8.783135376E0,3.182831268E0,1.014822353E1
9.928743750E-1,2.194286957E0,-1.194501022E1,5.661826172E0,1.339979254E1
1.002913375E0,1.115630035E0,-1.151016449E1,5.991141357E0,1.302391230E1
1.012952375E0,3.087928619E0,-9.203311615E0,5.042863312E0,1.093922841E1
1.022992375E0,4.177363129E0,-7.531887360E0,3.946692810E0,9.473968231E0
1.033031375E0,4.184248810E0,-6.659202118E0,1.215921478E0,7.958101281E0
1.043071375E0,2.780467987E0,-8.358318787E0,1.810036011E0,8.992704016E0
1.053110375E0,9.912387085E-1,-1.038405624E1,2.695145416E0,1.077381024E1
1.063150375E0,1.048270111E0,-1.063777863E1,4.904850311E0,1.176089966E1
1.073189375E0,1.013392639E-1,-9.985435181E0,6.426436157E0,1.187511124E1
1.083229375E0,-2.793191528E0,-1.073283096E1,4.017645264E0,1.179563703E1
1.093268375E0,-2.563419342E0,-1.095466965E1,4.457879791E0,1.210159486E1
1.103307375E0,-2.318528595E0,-9.810748444E0,6.358776855E0,1.191890947E1
1.113347375E0,-1.497036896E0,-9.789193268E0,6.291267242E0,1.173241100E1
1.123386625E0,-2.168989563E-1,-9.517358551E0,6.885681152E0,1.174903247E1
1.133426625E0,-9.764195251E-1,-9.495953064E0,9.706565094E0,1.361410759E1
1.143465625E0,-1.646725616E0,-9.435478821E0,8.648864594E0,1.290514721E1
1.153504625E0,-4.761598206E-1,-9.705517273E0,6.565496979E0,1.172729910E1
1.163544625E0,2.600093079E-1,-9.114097137E0,5.120102692E0,1.045704657E1
1.173583625E0,2.291285248E0,-6.642137604E0,1.576521606E0,7.200930524E0
1.183623625E0,4.379293213E0,-5.256169739E0,-1.499581604E0,7.003875667E0
1.193662625E0,3.204835510E0,-5.686674500E0,-3.221900024E0,7.279414625E0
1.203702625E0,-1.008602600E0,-9.256900177E0,2.030976563E0,9.530600500E0
1.213741625E0,-2.673590240E0,-1.002510269E1,3.641327820E0,1.099591001E1
1.223781625E0,-2.414329376E0,-8.154891815E0,4.068090363E0,9.427651142E0
1.233820625E0,-1.844165039E0,-7.023694153E0,4.123475189E0,8.350824623E0
1.243859625E0,-1.220561829E0,-6.633904724E0,3.124752045E0,7.433877750E0
1.253899625E0,-1.816772003E0,-6.861132202E0,4.673880615E0,8.498291335E0
1.263938625E0,-2.444865875E0,-7.257058868E0,5.864055634E0,9.645176050E0
1.273978625E0,-1.554068298E0,-7.128925323E0,4.241130524E0,8.439424901E0
1.284017625E0,-1.450334015E0,-6.136040039E0,2.142045593E0,6.659040129E0
1.294057625E0,-1.129700775E0,-5.023553467E0,3.261717224E0,6.095171247E0
1.304096625E0,-1.788480835E0,-5.369633789E0,4.297413483E0,7.106292519E0
1.314135625E0,-2.892734528E0,-6.601871338E0,6.740932159E0,9.868778272E0
1.324175625E0,-5.179379425E0,-1.014964371E1,8.739875336E0,1.436059398E1
1.334214625E0,-6.983278198E0,-1.358724518E1,9.598938904E0,1.804214605E1
1.344254625E0,-4.954397278E0,-1.296663574E1,8.967851257E0,1.652579956E1
1.354293625E0,-2.900967407E0,-1.203347626E1,8.671317902E0,1.511330265E1
1.364333625E0,-2.500699768E0,-1.335268295E1,9.722132721E0,1.670531371E1
1.374372625E0,5.671705627E-1,-1.249616409E1,9.273964691E0,1.557184063E1
1.384411625E0,6.569987640E0,-7.221732330E0,7.751181335E0,1.246591222E1
1.394451625E0,8.292006683E0,-4.259242859E0,4.596341858E0,1.039350196E1
1.404490625E0,5.668861542E0,-4.975204010E0,2.442620544E0,7.928117131E0
1.414530625E0,2.462529144E0,-4.804858246E0,3.022814026E0,6.187739263E0
1.424569625E0,-1.305734711E0,-5.537584534E0,4.236789551E0,7.093671215E0
1.434609625E0,-3.720064087E0,-7.050039368E0,4.191882935E0,9.006320805E0
1.444648625E0,-5.577551422E0,-7.982300720E0,5.605992279E0,1.123625178E1
1.454687625E0,-8.605305176E0,-1.027253815E1,7.844886475E0,1.552799282E1
1.464727625E0,-9.285041656E0,-1.144834305E1,7.234156494E0,1.641979224E1
1.474766625E0,-7.558232574E0,-9.304052124E0,7.165748749E0,1.396568010E1
1.484806625E0,-7.638016663E0,-7.802823944E0,7.795938263E0,1.341640837E1
1.494845625E0,-7.437433777E0,-8.202043762E0,7.075037384E0,1.313944813E1
1.504884625E0,-5.523214417E0,-6.872807922E0,5.480403442E0,1.038153207E1
1.514924625E0,-3.364403687E0,-4.266577606E0,6.368506622E0,8.371425998E0
1.524963625E0,-4.275109863E-1,-2.353406067E0,4.457580414E0,5.058785319E0
1.535003625E0,-7.156617737E-1,-2.386187897E0,4.313879242E0,4.981527734E0
1.545042625E0,-1.045575714E0,-3.159779205E0,3.790417786E0,5.044274000E0
1.555082625E0,6.710545349E-1,-4.082610168E0,3.642076263E0,5.512054017E0
1.565121625E0,4.276756439E0,-6.518045654E0,5.367987213E0,9.465244398E0
1.575160625E0,1.130748596E0,-7.774981842E0,4.140988770E0,8.881256838E0
1.585200625E0,-4.166735229E0,-9.411828003E0,2.340233459E0,1.055560901E1
1.595239625E0,-6.462062073E0,-1.100840790E1,2.689307556E0,1.304513955E1
1.605279625E0,-6.572831726E0,-9.875413971E0,4.102369080E0,1.255210540E1
1.615318625E0,-5.722599792E0,-8.332422638E0,4.487368469E0,1.105956108E1
1.625358625E0,-5.664520569E0,-8.364306335E0,5.783074036E0,1.164011852E1
1.635397625E0,-5.636528778E0,-8.752748566E0,7.615713043E0,1.289884294E1
1.645436625E0,-3.843407593E0,-7.705825653E0,7.579338684E0,1.147161304E1
1.655476625E0,-1.768871613E0,-8.454119568E0,6.495292969E0,1.080693644E1
1.665515625E0,-5.295088806E0,-9.052874451E0,6.610403595E0,1.239717456E1
1.675555625E0,-3.340603180E0,-6.100563812E0,3.008294220E0,7.578017059E0
1.685594625E0,1.008003845E0,-2.048789520E0,1.881736908E0,2.958807875E0
1.695634625E0,2.196831665E0,-4.264631653E-1,1.329535217E0,2.602999057E0
1.705673625E0,2.173779602E0,-1.944007416E0,8.231382751E-1,3.030187983E0
1.715712625E0,2.997366943E0,-4.396058350E0,3.701802063E0,6.481734036E0
1.725752625E0,9.722282410E-1,-5.469176788E0,1.220995926E1,1.341418009E1
1.735791625E0,-1.827699280E-1,-9.832602997E0,1.308533890E1,1.636886009E1
1.745831625E0,-3.335064697E-1,-9.755662994E0,1.141601028E1,1.502030219E1
1.755870625E0,1.473236389E0,-7.635621643E0,1.033855087E1,1.293672205E1
1.765910625E0,-2.842588806E0,-9.518855438E0,7.723788300E0,1.258355378E1
1.775949625E0,-7.994126129E0,-1.306004150E1,2.446662140E0,1.550667251E1
1.785988625E0,-7.279811554E0,-1.106513992E1,-1.227447510E-2,1.324511715E1
1.796028625E0,-5.407654724E0,-7.466323700E0,-7.399113464E-1,9.248577621E0
1.806067625E0,-1.369801483E0,-6.069727936E0,-2.374661865E0,6.660103024E0
1.816107625E0,1.904040527E0,-7.154671783E0,-2.233954468E0,7.733385496E0
1.826146625E0,7.692503357E-1,-9.383237457E0,-1.230890350E0,9.494839773E0
1.836185625E0,-1.587448883E0,-9.850715332E0,2.261497192E0,1.023088247E1
1.846225625E0,2.930905151E-1,-1.527214142E1,2.099533997E0,1.541856830E1
1.856264625E0,3.034040680E0,-1.653252045E1,2.743195496E0,1.703099400E1
1.866304625E0,1.752854919E0,-1.302546341E1,1.016655853E1,1.661607986E1
1.876343625E0,-1.865121460E-1,-8.081694031E0,1.060409866E1,1.333399691E1
1.886383625E0,1.534010010E0,-3.391946411E0,7.522906036E0,8.393604851E0
1.896422625E0,1.858535156E0,-1.102906494E0,3.882925415E0,4.443834542E0
1.906462625E0,2.724334717E-1,-3.487148438E0,1.486558685E0,3.800563241E0
1.916501625E0,2.396217041E0,-1.491199036E0,1.904040527E0,3.404541232E0
1.926540625E0,2.552641754E0,-8.158035278E-2,1.913171539E0,3.191059482E0
1.936580625E0,3.749702454E-1,-2.864593048E0,-1.028062134E0,3.066497639E0
1.946619625E0,-1.420695648E0,-5.226531372E0,-2.134261780E0,5.821518672E0
1.956659625E0,-2.274071045E0,-6.447691956E0,-1.726958771E0,7.051703147E0
1.966698625E0,-2.305206299E0,-6.814429321E0,-1.253643036E0,7.302194459E0
1.976737625E0,-2.147883453E0,-7.335944824E0,-6.436614990E-1,7.670970598E0
1.986777625E0,-1.426383820E0,-6.684798889E0,-3.168910217E-1,6.842625732E0
1.996816625E0,-1.190025330E-1,-5.642067261E0,1.100361786E0,5.749598302E0
2.006856625E0,1.103804626E0,-5.677992554E0,4.712500305E0,7.460941175E0
2.016895625E0,1.883233795E0,-4.227957916E0,3.877237244E0,6.037811384E0
2.026935625E0,2.498604126E0,-3.997586975E0,1.998793488E0,5.120439396E0
2.036974625E0,2.533631287E0,-8.685688019E0,2.972518616E0,9.523462121E0
2.047013625E0,5.412145386E0,-1.517903503E1,1.590742035E0,1.619335921E1
2.057053625E0,9.061107330E0,-2.279938843E1,1.440304871E0,2.457621323E1
2.067092625E0,9.207951965E0,-2.953463242E1,7.725434875E-1,3.094636836E1
2.077132625E0,6.514004059E0,-3.158686478E1,7.683522034E-1,3.226069808E1
2.087171625E0,3.630250854E0,-2.556518692E1,2.945424957E0,2.598909448E1
2.097211625E0,8.240364075E-1,-1.435649551E1,5.438490601E0,1.537417248E1
2.107250625E0,-2.160906372E0,-1.024469604E1,4.468358002E0,1.138374001E1
2.117289042E0,-4.454736328E0,-9.623188477E0,1.314566345E0,1.068543480E1
2.127329042E0,-5.612728271E0,-9.164242859E0,3.906875610E-2,1.074651535E1
2.137368042E0,-6.346951447E0,-9.132209473E0,3.573069763E-1,1.112693627E1
2.147408042E0,-7.073839874E0,-9.998757477E0,6.315367126E-1,1.226430594E1
2.157447042E0,-6.842121735E0,-1.100736008E1,1.114731903E0,1.300842930E1
2.167486042E0,-4.665797424E0,-1.191462341E1,1.014590149E0,1.283578240E1
2.177526042E0,-2.506687317E0,-1.142574005E1,1.441801758E0,1.178600057E1
2.187565042E0,-1.274449768E0,-1.125374771E1,1.723964996E0,1.145613875E1
2.197605042E0,-3.790118408E-1,-1.169817352E1,1.359622650E0,1.178301691E1
2.207644042E0,-7.738906860E-2,-1.225950623E1,5.013075256E-1,1.226999557E1
2.217684042E0,-1.145118713E-1,-1.235889954E1,-4.465214539E-1,1.236749336E1
2.227723042E0,2.941383362E-1,-1.201446579E1,-9.927355957E-1,1.205899787E1
2.237762042E0,8.387059021E-1,-1.131556915E1,-6.667135620E-1,1.136617965E1
2.247802042E0,1.324445801E0,-1.078911392E1,-3.026705933E-1,1.087431586E1
2.257841042E0,1.682501221E0,-1.021999741E1,1.754351807E-1,1.035905087E1
2.267881042E0,1.935325470E0,-9.659113770E0,1.030307465E0,9.904821904E0
2.277920042E0,2.419418793E0,-9.353748779E0,1.594933319E0,9.792344756E0
2.287960042E0,3.244203644E0,-9.203610992E0,1.687440948E0,9.903472600E0
2.297999042E0,4.116888885E0,-9.787247314E0,1.594783630E0,1.073696041E1
2.308038042E0,5.104385376E0,-1.048689240E1,2.020198975E0,1.183684359E1
2.318078042E0,5.929170227E0,-1.205682770E1,1.282532959E0,1.349692722E1
2.328117042E0,6.540349274E0,-1.353021378E1,7.143145752E-1,1.504503568E1
2.338157042E0,6.631659393E0,-1.458417206E1,4.498146057E-1,1.602745501E1
2.348196042E0,6.137387238E0,-1.511047760E1,3.555107117E-1,1.631319844E1
2.358236042E0,5.353766785E0,-1.503832764E1,3.367996216E-1,1.596645079E1
2.368275042E0,4.727020111E0,-1.457608887E1,3.692820740E-1,1.532786531E1
2.378314042E0,4.391118622E0,-1.358664642E1,1.387764130E0,1.434589743E1
2.388354042E0,4.088897095E0,-1.215367630E1,2.137704620E0,1.300002723E1
2.398393042E0,4.010609894E0,-1.067744614E1,1.115480347E0,1.146024189E1
2.408433042E0,3.952979736E0,-9.356592865E0,1.076261902E-1,1.015792608E1
2.418472042E0,3.925437012E0,-8.208630066E0,-6.777905273E-1,9.124147264E0
2.428511042E0,3.823199615E0,-7.338639221E0,-1.251697083E0,8.368944169E0
2.438551042E0,3.544778595E0,-6.693780212E0,-1.625918884E0,7.746983996E0
2.448590042E0,3.120411072E0,-6.127507782E0,-1.761237488E0,7.098258544E0
2.458630042E0,2.714754639E0,-5.784421234E0,-2.009571075E0,6.698342905E0
2.468669042E0,2.374961243E0,-5.608237610E0,-2.436632996E0,6.559721819E0
2.478709042E0,2.084714813E0,-5.454058228E0,-2.477348328E0,6.342715644E0
2.488748042E0,1.823807373E0,-5.672603760E0,-2.342628479E0,6.402547535E0
2.498787042E0,1.618284760E0,-6.402635651E0,-2.046693878E0,6.913866116E0
2.508827042E0,1.390009460E0,-7.214696960E0,-1.514700165E0,7.501886104E0
2.518866042E0,1.148561554E0,-7.704478455E0,-9.193881226E-1,7.843688955E0
2.528906042E0,8.482859802E-1,-7.968679047E0,-4.013154602E-1,8.023745319E0
2.538945042E0,5.287005615E-1,-8.261320496E0,-2.574645996E-2,8.278260898E0
2.548984042E0,2.662962341E-1,-8.637338562E0,4.061054993E-1,8.650979875E0
2.559024042E0,8.637039185E-2,-8.853339386E0,8.571176147E-1,8.895151979E0
2.569063042E0,-7.080276489E-2,-8.516988831E0,1.178499298E0,8.598428482E0
2.579103042E0,-2.287243652E-1,-7.771838379E0,1.635199585E0,7.945291958E0
2.589142042E0,-1.737886047E-1,-7.340435486E0,2.437830505E0,7.736615098E0
2.599182042E0,1.781295776E-1,-6.952292633E0,3.182232513E0,7.648052482E0
2.609221042E0,7.170089722E-1,-6.586154022E0,4.381987610E0,7.943131755E0
2.619260042E0,1.499880981E0,-6.851252747E0,5.602699127E0,8.976610979E0
2.629300042E0,2.173031158E0,-7.639663239E0,6.667884064E0,1.037049645E1
2.639339042E0,3.399730225E0,-8.496930542E0,7.770191803E0,1.200549353E1
2.649379042E0,5.062622223E0,-9.354347534E0,8.899593201E0,1.386855150E1
2.659418042E0,6.816375275E0,-1.033600616E1,9.852960663E0,1.582330020E1
2.669458042E0,8.380921783E0,-1.150477570E1,1.043420197E1,1.764857740E1
2.679497042E0,9.637408905E0,-1.255109985E1,1.073821976E1,1.912378418E1
2.689536042E0,1.000414627E1,-1.340208023E1,1.035247192E1,1.966907146E1
2.699576042E0,9.352401581E0,-1.374831024E1,9.127718811E0,1.896836051E1
2.709615042E0,8.343948669E0,-1.311632446E1,7.483687592E0,1.725297153E1
2.719655042E0,7.308701477E0,-1.118369339E1,5.703589325E0,1.452663231E1
2.729694042E0,6.841672668E0,-8.917555847E0,4.137096863E0,1.197693023E1
2.739733042E0,6.682254181E0,-7.609126740E0,2.962190094E0,1.055110899E1
2.749773042E0,5.713768158E0,-6.870113525E0,2.153272247E0,9.191419248E0
2.759812042E0,4.209995270E0,-6.870412903E0,2.145039368E0,8.338334817E0
2.769852042E0,3.722908173E0,-8.070916443E0,2.156116333E0,9.145959498E0
2.779891042E0,4.728516998E0,-9.492809601E0,1.975591736E0,1.078773701E1
2.789931042E0,5.208269348E0,-1.160656403E1,3.136727142E0,1.310257438E1
2.799970042E0,5.401966553E0,-1.362242203E1,4.168681183E0,1.523579756E1
2.810009042E0,4.835245056E0,-1.458282486E1,3.779789886E0,1.582166828E1
2.820049042E0,3.791914673E0,-1.455992249E1,2.576741638E0,1.526465057E1
2.830088042E0,2.928210754E0,-1.407268570E1,1.412462769E0,1.444333591E1
2.840128042E0,2.366129608E0,-1.356134903E1,5.075944519E-1,1.377557291E1
2.850167042E0,1.837279358E0,-1.305375458E1,-2.085163879E-1,1.318406550E1
2.860206042E0,1.282383270E0,-1.264300873E1,-6.599775696E-1,1.272500479E1
2.870246042E0,7.544311523E-1,-1.222268280E1,-1.031205597E0,1.228928502E1
2.880285042E0,3.376977539E-1,-1.161270126E1,-1.115330658E0,1.167102536E1
2.890325042E0,2.511776733E-1,-1.087428680E1,-1.224453735E0,1.094588921E1
2.900364042E0,4.192781067E-1,-1.014200958E1,-1.924996948E0,1.033159067E1
2.910404042E0,5.983058167E-1,-9.593999176E0,-2.883453827E0,1.003579075E1
2.920443042E0,7.813751221E-1,-9.272767181E0,-3.639531555E0,9.992044246E0
2.930482042E0,1.128652954E0,-9.050329742E0,-3.900289307E0,9.919404348E0
2.940522042E0,1.528471527E0,-8.927135925E0,-3.509751434E0,9.713307169E0
2.950561042E0,1.726958771E0,-9.056466980E0,-2.694247284E0,9.605256331E0
2.960601042E0,1.783990173E0,-9.376202087E0,-1.661395111E0,9.687931680E0
2.970640042E0,1.829196167E0,-9.797126770E0,-6.108796692E-1,9.985130221E0
2.980679042E0,1.846560059E0,-1.011970596E1,2.115101624E-1,1.028897319E1
2.990719042E0,1.933229828E0,-1.020428009E1,7.952961731E-1,1.041619920E1
3.000758042E0,2.133213959E0,-1.001522324E1,1.496138763E0,1.034861003E1
3.010798042E0,2.138003998E0,-9.743687897E0,1.849254456E0,1.014545499E1
3.020837042E0,2.271825714E0,-9.526788940E0,2.104174347E0,1.001740731E1
3.030877042E0,2.474055176E0,-9.422605591E0,2.532284088E0,1.006572937E1
3.040916042E0,2.660267944E0,-9.096733246E0,2.998863831E0,9.940863421E0
3.050955042E0,2.704575806E0,-8.685538330E0,3.371588745E0,9.701593531E0
3.060995042E0,2.931653595E0,-8.163723450E0,3.470832367E0,9.342786024E0
3.071034042E0,3.080444183E0,-7.626340942E0,3.571572876E0,8.966958534E0
3.081074042E0,2.981949005E0,-7.148534546E0,3.773802338E0,8.615982249E0
3.091113042E0,2.737956390E0,-6.657854919E0,3.832180939E0,8.155307969E0
3.101153042E0,2.421813812E0,-6.333479462E0,3.838168488E0,7.791641776E0
3.111192042E0,2.139800262E0,-6.224655762E0,3.829785919E0,7.615270494E0
3.121231750E0,1.899100800E0,-6.332880707E0,3.585793304E0,7.521294803E0
3.131271750E0,1.722019043E0,-6.705755310E0,3.285368042E0,7.663298704E0
3.141310750E0,1.348395996E0,-7.103627930E0,2.870730286E0,7.779511161E0
3.151350750E0,9.714797974E-1,-7.463778992E0,2.543660431E0,7.944934123E0
3.161389750E0,4.469705200E-1,-7.699389038E0,2.488275604E0,8.103819451E0
3.171428750E0,-1.122665405E-2,-7.704179077E0,2.592309265E0,8.128626490E0
3.181468750E0,-1.179547119E-1,-7.658224640E0,2.349364471E0,8.011356400E0
3.191507750E0,1.993853760E-1,-7.475903778E0,1.766775970E0,7.684425103E0
3.201547750E0,9.824070740E-1,-7.287146301E0,1.424737244E0,7.489826506E0
3.211586750E0,1.686542816E0,-7.309000854E0,1.311422882E0,7.614837499E0
3.221626750E0,2.168091431E0,-7.843838654E0,1.611997833E0,8.296081140E0
3.231665750E0,2.609523468E0,-8.568332062E0,2.480791168E0,9.294097690E0
3.241704750E0,3.232527924E0,-9.238638153E0,3.351380768E0,1.034569595E1
3.251744750E0,3.839216309E0,-9.948013000E0,3.851939850E0,1.133754758E1
3.261783750E0,4.440216522E0,-1.070229446E1,4.086502075E0,1.228633911E1
3.271823750E0,5.154680786E0,-1.145837219E1,3.791016541E0,1.312390314E1
3.281862750E0,5.986201630E0,-1.216086136E1,3.080444183E0,1.390001062E1
3.291901750E0,6.490951996E0,-1.270572830E1,2.272125092E0,1.444750989E1
3.301941750E0,6.524332581E0,-1.304402481E1,1.886976013E0,1.470626320E1
3.311980750E0,6.233637085E0,-1.308548859E1,1.979932709E0,1.462902513E1
3.322020750E0,5.704487457E0,-1.288670197E1,2.294728088E0,1.427844675E1
3.332059750E0,5.292394409E0,-1.248688339E1,2.478246460E0,1.378671103E1
3.342098750E0,5.204976196E0,-1.166239792E1,2.108215942E0,1.294402862E1
3.352138750E0,4.998405762E0,-1.102412521E1,2.004481659E0,1.226920306E1
3.362177750E0,4.764142914E0,-1.073253159E1,2.059567108E0,1.192166551E1
3.372217750E0,4.450395355E0,-1.054422318E1,2.002236328E0,1.161876119E1
3.382256750E0,3.845203857E0,-1.039198975E1,1.951940918E0,1.125118291E1
3.392296750E0,3.050805817E0,-1.038121216E1,1.974693604E0,1.099892708E1
3.402335750E0,2.173031158E0,-1.048794022E1,2.066153412E0,1.090815953E1
3.412374750E0,1.469045105E0,-1.072923843E1,2.114802246E0,1.103390409E1
3.422414750E0,1.047222290E0,-1.118249588E1,2.113005981E0,1.142845934E1
3.432453750E0,9.771679688E-1,-1.215696945E1,2.087109833E0,1.237347126E1
3.442493750E0,1.218915253E0,-1.376597351E1,1.940564575E0,1.395541372E1
3.452532750E0,1.410816193E0,-1.553694077E1,1.663790131E0,1.568933167E1
3.462572750E0,1.527274017E0,-1.707618988E1,1.409468994E0,1.720219258E1
3.472611750E0,2.156715088E0,-1.805171127E1,1.098266144E0,1.821323388E1
3.482650750E0,3.245251465E0,-1.790786041E1,6.732998657E-1,1.821198656E1
3.492690750E0,4.373904419E0,-1.678130310E1,6.270460510E-1,1.735328097E1
3.502729750E0,5.610632629E0,-1.525926819E1,3.784130859E-1,1.626246170E1
3.512769750E0,6.927743683E0,-1.369322479E1,-6.295907593E-1,1.535885485E1
3.522808750E0,8.152047729E0,-1.200039505E1,-2.401605835E0,1.470486566E1
3.532847750E0,8.621321869E0,-1.017374359E1,-4.523293762E0,1.408163470E1
3.542887750E0,8.428223419E0,-8.240364075E0,-5.788462830E0,1.313182592E1
3.552926750E0,7.769593048E0,-6.562652893E0,-6.184539185E0,1.190308843E1
3.562966750E0,6.837780762E0,-5.333708496E0,-6.234684906E0,1.068058931E1
3.573005750E0,5.950126648E0,-4.478686523E0,-5.919290771E0,9.513182608E0
3.583044750E0,4.963677979E0,-4.110452271E0,-4.940176849E0,8.120299517E0
3.593084750E0,3.856131134E0,-4.313130798E0,-3.899241486E0,6.976885320E0
3.603123750E0,2.845732269E0,-4.783153381E0,-2.969375153E0,6.308243592E0
3.613163750E0,1.983525238E0,-5.243446198E0,-2.200723572E0,6.022564623E0
3.623202750E0,1.197360077E0,-5.694308624E0,-1.567091217E0,6.026159369E0
3.633242750E0,3.335064697E-1,-6.205495605E0,-7.575746155E-1,6.260456978E0
3.643281750E0,-5.304968262E-1,-6.632407837E0,-6.616241455E-2,6.653919000E0
3.653320750E0,-1.398092651E0,-6.910379791E0,7.824229431E-1,7.093673067E0
3.663360750E0,-1.957479401E0,-7.228318634E0,1.705403595E0,7.680411272E0
3.673399750E0,-2.076781311E0,-7.584727478E0,2.301015015E0,8.193642757E0
3.683439750E0,-1.640887756E0,-7.865693207E0,2.945874023E0,8.558026409E0
3.693478750E0,-5.840853882E-1,-8.107889557E0,3.912414093E0,9.021419669E0
3.703518750E0,4.465214539E-1,-8.468489685E0,5.190755768E0,9.942768447E0
3.713557750E0,7.818241882E-1,-9.222471771E0,6.689888306E0,1.142015062E1
3.723596750E0,1.097218323E0,-9.902208252E0,8.151299286E0,1.287250156E1
3.733636750E0,1.296603699E0,-1.009919861E1,9.001381531E0,1.359043278E1
3.743675750E0,1.274000702E0,-9.987081757E0,8.652008057E0,1.327486811E1
3.753715750E0,1.392703857E0,-9.709259491E0,6.688241730E0,1.187189628E1
3.763754750E0,1.934127960E0,-9.047485657E0,5.437742157E0,1.073158364E1
3.773793750E0,2.998414764E0,-8.117918701E0,5.011278992E0,1.000020061E1
3.783833750E0,4.365821228E0,-7.348967743E0,4.832700348E0,9.819506838E0
3.793872750E0,5.835614777E0,-6.775959320E0,4.845723267E0,1.017099103E1
3.803912750E0,7.442822571E0,-6.419550476E0,5.140310669E0,1.109184520E1
3.813951750E0,9.429341583E0,-6.314618683E0,5.503605194E0,1.261255573E1
3.823991750E0,1.147468826E1,-6.498735809E0,5.602399750E0,1.432790706E1
3.834030750E0,1.289703049E1,-7.060517578E0,5.710025940E0,1.577303712E1
3.844069750E0,1.365924545E1,-7.922724609E0,5.845643921E0,1.683793647E1
3.854109750E0,1.369606888E1,-9.138795776E0,5.961353302E0,1.751107147E1
3.864148750E0,1.230351471E1,-1.072579559E1,5.288502502E0,1.715772199E1
3.874188750E0,9.627230072E0,-1.210173431E1,4.546046448E0,1.611837680E1
3.884227750E0,7.926167450E0,-1.240635086E1,3.635190582E0,1.516430950E1
3.894266750E0,7.265441437E0,-1.202045334E1,2.499352570E0,1.426620836E1
3.904306750E0,7.012317810E0,-1.194650711E1,1.533111877E0,1.393707520E1
3.914345750E0,7.312443695E0,-1.198602493E1,8.096662903E-1,1.406386099E1
3.924385750E0,7.544461212E0,-1.170775360E1,4.641847229E-1,1.393577615E1
3.934424750E0,6.993457031E0,-1.076261902E1,5.536985779E-1,1.284713943E1
3.944463750E0,5.811065826E0,-9.716294861E0,1.215472412E0,1.138649398E1
3.954503750E0,5.172194366E0,-9.553583221E0,2.948568420E0,1.125684692E1
3.964542750E0,5.274282074E0,-1.086066513E1,4.829107819E0,1.300355262E1
3.974582750E0,5.362448730E0,-1.196057785E1,3.794908447E0,1.364597410E1
3.984621750E0,4.951403503E0,-1.273117538E1,1.608854370E0,1.375454964E1
3.994661750E0,4.106410675E0,-1.359368179E1,4.616400146E-1,1.420788179E1
4.004700750E0,2.956801300E0,-1.407118881E1,1.896556091E-1,1.437974262E1
4.014739750E0,1.852996674E0,-1.384994888E1,4.017645264E-1,1.397913071E1
4.024779750E0,1.062490540E0,-1.349608475E1,9.422904968E-1,1.357059693E1
4.034818750E0,3.046165466E-1,-1.351120331E1,1.455872498E0,1.359282792E1
4.044858750E0,-4.448748779E-1,-1.368334534E1,1.487756195E0,1.377117540E1
4.054897750E0,-1.191222839E0,-1.388362885E1,7.854167175E-1,1.395675611E1
4.064936750E0,-1.862576752E0,-1.399305130E1,-3.852987671E-1,1.412172553E1
4.074976750E0,-2.529889069E0,-1.380863480E1,-1.862576752E0,1.416149448E1
4.085015750E0,-3.000360718E0,-1.307156754E1,-3.139122162E0,1.377396567E1
4.095055750E0,-3.104244690E0,-1.196970886E1,-4.335883484E0,1.310382200E1
4.105094750E0,-2.847678223E0,-1.100062408E1,-6.374344482E0,1.302901643E1
4.115134750E0,-1.357527008E0,-1.020323227E1,-5.917045441E0,1.187266841E1
4.125173292E0,-3.673361206E-1,-9.749376068E0,-3.325035553E0,1.030733384E1
4.135212292E0,1.348695374E-1,-9.426347809E0,-1.266366577E0,9.511987548E0
4.145252292E0,1.229543152E0,-9.444759521E0,-1.508862305E-1,9.525650919E0
4.155291292E0,2.300116882E0,-9.592053223E0,5.298980713E-1,9.878198959E0
4.165331292E0,3.158282318E0,-9.635912018E0,1.105151825E0,1.020033863E1
4.175370292E0,4.052522736E0,-9.611961823E0,1.640738068E0,1.055958200E1
4.185409292E0,4.884941711E0,-9.487869873E0,2.179467773E0,1.089185062E1
4.195449292E0,5.526208191E0,-9.272018738E0,2.568209381E0,1.109526962E1
4.205488292E0,5.579347687E0,-8.970994720E0,2.895428925E0,1.095405749E1
4.215528292E0,5.135221252E0,-8.536598053E0,3.074905701E0,1.042588359E1
4.225567292E0,4.583318939E0,-8.038733368E0,3.006947021E0,9.729839518E0
4.235607292E0,4.164040833E0,-7.558082886E0,2.931354218E0,9.113544344E0
4.245646292E0,3.845054169E0,-7.032076721E0,2.970572662E0,8.547446783E0
4.255685292E0,3.709585876E0,-6.557264099E0,2.925216980E0,8.081808846E0
4.265725292E0,3.615132294E0,-6.241720276E0,2.792592773E0,7.734780404E0
4.275764292E0,3.462599487E0,-6.127507782E0,2.779420166E0,7.567107987E0
4.285804292E0,2.996917877E0,-6.257138214E0,3.114273834E0,7.604735164E0
4.295843292E0,2.162103882E0,-6.699318695E0,3.739373932E0,7.971102908E0
4.305882292E0,1.345402222E0,-7.254813538E0,4.353995819E0,8.567362850E0
4.315922292E0,9.032217407E-1,-7.706274719E0,4.163591766E0,8.805565056E0
4.325961292E0,9.580078125E-1,-7.930508423E0,3.537443848E0,8.736375209E0
4.336001292E0,1.224304047E0,-7.970924377E0,2.906356201E0,8.572132885E0
4.346040292E0,1.530267792E0,-7.933502197E0,2.332749023E0,8.409749975E0
4.356080292E0,1.578168182E0,-7.921676788E0,1.855691071E0,8.287772155E0
4.366119292E0,1.414857788E0,-7.957602081E0,1.479223938E0,8.216651198E0
4.376158292E0,1.573527832E0,-7.912246399E0,1.223405914E0,8.159433494E0
4.386198292E0,1.790726166E0,-7.930957489E0,1.258732452E0,8.227465848E0
4.396237292E0,1.996847534E0,-8.037685547E0,1.587299194E0,8.432752087E0
4.406277292E0,2.212548981E0,-8.216563568E0,2.058369598E0,8.754665914E0
4.416316292E0,2.419269104E0,-8.569080505E0,2.655777283E0,9.291671361E0
4.426355292E0,2.796035614E0,-8.978928223E0,3.235821075E0,9.945325797E0
4.436395292E0,3.367098083E0,-9.335187378E0,3.575764160E0,1.054841989E1
4.446434292E0,4.131408691E0,-9.641600189E0,3.694617004E0,1.112111446E1
4.456474292E0,4.877457275E0,-9.964927826E0,3.676504669E0,1.168785963E1
4.466513292E0,5.748196564E0,-1.033166519E1,3.664379883E0,1.237791377E1
4.476553292E0,6.669231262E0,-1.081680634E1,3.886517944E0,1.328860289E1
4.486592292E0,7.522906036E0,-1.136930740E1,4.148024139E0,1.424996036E1
4.496631292E0,7.988288269E0,-1.180834442E1,4.051923981E0,1.482119548E1
4.506671292E0,7.653883667E0,-1.188169189E1,3.426823883E0,1.454302786E1
4.516710292E0,6.530619507E0,-1.167093018E1,2.780767365E0,1.365987809E1
4.526750292E0,5.316943359E0,-1.105017105E1,2.458337860E0,1.250678184E1
4.536789292E0,5.264851685E0,-9.754016418E0,2.402953033E0,1.134167901E1
4.546828292E0,5.073549500E0,-8.653654633E0,2.280807037E0,1.028730887E1
4.556868292E0,4.485272827E0,-7.809110870E0,2.023492126E0,9.230081544E0
4.566907292E0,3.997736664E0,-7.394772491E0,1.847907257E0,8.606934406E0
4.576947292E0,3.586392059E0,-7.420818329E0,1.836081848E0,8.444048154E0
4.586986292E0,3.084635468E0,-7.821834412E0,2.004631348E0,8.643761703E0
4.597026292E0,2.570604401E0,-8.558602295E0,2.180365906E0,9.198460508E0
4.607065292E0,2.312690735E0,-9.554930420E0,2.370171204E0,1.011251429E1
4.617104292E0,2.412233734E0,-1.074300980E1,2.651885376E0,1.132535329E1
4.627144292E0,2.917582855E0,-1.209499832E1,2.981949005E0,1.279426801E1
4.637183292E0,3.509152679E0,-1.364607285E1,3.220852203E0,1.445348904E1
4.647223292E0,4.044738922E0,-1.514325943E1,3.181035004E0,1.599366133E1
4.657262292E0,4.525539093E0,-1.631891464E1,2.946173401E0,1.718916568E1
4.667301292E0,4.887636108E0,-1.706930420E1,2.455344086E0,1.792425304E1
4.677341292E0,5.469326477E0,-1.723755432E1,1.693877563E0,1.816359084E1
4.687380292E0,6.100264435E0,-1.702424789E1,9.328601074E-1,1.810824316E1
4.697420292E0,6.222111053E0,-1.643028305E1,6.170169067E-1,1.757980594E1
4.707459292E0,6.098917236E0,-1.556523193E1,8.184979248E-1,1.673747817E1
4.717499292E0,6.607260132E0,-1.450214264E1,-9.458830261E-1,1.596442051E1
4.727538292E0,7.713160400E0,-1.309177551E1,-4.078867950E0,1.573291433E1
4.737577292E0,8.270601196E0,-1.126138184E1,-5.979016571E0,1.519770391E1
4.747617292E0,7.674391022E0,-9.875264282E0,-6.437213745E0,1.406608840E1
4.757656292E0,6.450536041E0,-8.935069427E0,-6.229445801E0,1.265902350E1
4.767696292E0,5.087171173E0,-8.186176758E0,-5.596711578E0,1.114522234E1
4.777735292E0,3.836821289E0,-7.541766815E0,-4.474495239E0,9.571862512E0
4.787774292E0,2.654130707E0,-7.075037384E0,-3.213218079E0,8.211293090E0
4.797814292E0,1.709295502E0,-6.701114960E0,-2.127675476E0,7.235581231E0
4.807853292E0,1.116079102E0,-6.390959930E0,-1.548829193E0,6.669997996E0
4.817893292E0,4.502636719E-1,-6.167324982E0,-1.125509491E0,6.285332642E0
4.827932292E0,-1.339714050E-1,-6.042484589E0,-7.137158203E-1,6.085964066E0
4.837972292E0,-5.980064392E-1,-6.062393188E0,-3.308120728E-1,6.100791711E0
4.848011292E0,-9.159452820E-1,-6.264772339E0,7.469467163E-2,6.331817078E0
4.858050292E0,-1.010698242E0,-6.606661377E0,5.659730530E-1,6.707444445E0
4.868090292E0,-9.614506531E-1,-7.015161896E0,1.225052490E0,7.185933300E0
4.878129292E0,-7.204518127E-1,-7.520061951E0,1.737287292E0,7.751680443E0
4.888169292E0,-2.191442871E-1,-7.985444183E0,2.199376373E0,8.285686420E0
4.898208292E0,5.013075256E-1,-8.402626648E0,2.874023438E0,8.894686871E0
4.908247292E0,1.282982025E0,-8.751551056E0,3.642974396E0,9.565926573E0
4.918287292E0,1.887125702E0,-8.896898804E0,4.378993835E0,1.009413883E1
4.928326292E0,2.351160736E0,-8.877588959E0,4.960833893E0,1.043788367E1
4.938366292E0,2.702929230E0,-8.746611328E0,5.202730865E0,1.052983592E1
4.948405292E0,2.917433167E0,-8.675958252E0,4.897365875E0,1.038113001E1
4.958444292E0,3.128194885E0,-8.484656067E0,4.276457062E0,1.000315334E1
4.968484292E0,3.497327271E0,-8.193212128E0,3.831881561E0,9.697594511E0
4.978523292E0,4.113595734E0,-7.883805542E0,3.631897430E0,9.605557695E0
4.988563292E0,5.093009033E0,-7.512876892E0,3.713178406E0,9.806617872E0
4.998602292E0,6.421945496E0,-7.187154236E0,4.023782501E0,1.044449116E1
5.008642292E0,8.020770721E0,-7.041806488E0,4.499044189E0,1.158279760E1
5.018681292E0,9.518855438E0,-7.046895905E0,4.934039612E0,1.283012461E1
5.028720292E0,1.092024124E1,-7.015461273E0,5.361251221E0,1.404319694E1
5.038760292E0,1.190788742E1,-7.209308167E0,5.425916748E0,1.494029717E1
5.048799292E0,1.230815506E1,-7.896529083E0,4.840035095E0,1.540362919E1
5.058839292E0,1.199380875E1,-9.195378113E0,4.401896210E0,1.574112820E1
5.068878292E0,1.085886887E1,-1.091500214E1,4.532724152E0,1.604985648E1
5.078917292E0,9.589059448E0,-1.191537186E1,4.629722443E0,1.598000242E1
5.088957292E0,7.757318573E0,-1.236458771E1,4.528981934E0,1.528301992E1
5.098996292E0,6.076763306E0,-1.238180191E1,4.313579865E0,1.445140277E1
5.109036292E0,5.507197723E0,-1.171389084E1,3.657344513E0,1.345067412E1
5.119078125E0,5.579647064E0,-1.067729645E1,3.112627258E0,1.244289232E1
5.129118125E0,5.410199432E0,-9.637857971E0,2.780917053E0,1.139701995E1
5.139157125E0,5.064717865E0,-8.393495636E0,2.270328827E0,1.006263032E1
5.149196125E0,4.705015869E0,-7.088958435E0,1.717079315E0,8.679796507E0
5.159236125E0,4.949607239E0,-6.188131714E0,1.729952545E0,8.110753463E0
5.169275125E0,5.464686127E0,-5.636678467E0,2.098336487E0,8.126374014E0
5.179315125E0,5.421276398E0,-5.078489227E0,2.875370636E0,7.965491002E0
5.189354125E0,4.876858521E0,-5.039420471E0,6.089037781E0,9.287404848E0
5.199393125E0,5.630541229E0,-7.022346954E0,7.279961243E0,1.157644967E1
5.209433125E0,6.602470093E0,-9.815538483E0,4.405039673E0,1.262306546E1
5.219472125E0,6.458469543E0,-1.195039902E1,1.359772339E0,1.365184406E1
5.229512125E0,5.652096405E0,-1.338666229E1,1.091230774E-1,1.453137395E1
5.239551125E0,4.444557495E0,-1.410965881E1,1.730401611E-1,1.479413756E1
5.249591125E0,2.996019745E0,-1.373498795E1,6.292913818E-1,1.407203027E1
5.259630125E0,1.831142120E0,-1.296753387E1,1.105002136E0,1.314271836E1
5.269669125E0,1.087488556E0,-1.292696823E1,1.606908417E0,1.307177469E1
5.279709125E0,5.029541016E-1,-1.394155838E1,2.830464020E0,1.423487055E1
5.289748125E0,-1.640588379E-1,-1.569156921E1,2.897075500E0,1.595760966E1
5.299788125E0,-5.562432861E-1,-1.739023682E1,1.696272583E0,1.748162131E1
5.309827125E0,-6.791377258E-1,-1.766296967E1,4.535568237E-2,1.767607939E1
5.319866125E0,-2.549198914E-1,-1.621218658E1,-1.570833435E0,1.629010423E1
5.329906125E0,3.941304016E-1,-1.400802017E1,-2.815345459E0,1.429356981E1
5.339945125E0,1.160836029E0,-1.172766220E1,-4.059707794E0,1.246462307E1
5.349985125E0,2.984344025E0,-9.975555725E0,-9.077872467E0,1.381397082E1
5.360024125E0,3.612587585E0,-9.177415466E0,-1.041085052E1,1.434090487E1
5.370063125E0,2.405946808E0,-8.663833466E0,-5.716462555E0,1.065497698E1
5.380103125E0,1.363963623E0,-8.012837219E0,-1.713187408E0,8.306682139E0
5.390142125E0,1.477577362E0,-7.583529968E0,-4.707710266E-1,7.740464263E0
5.400182125E0,2.008972321E0,-7.945327606E0,-1.842668152E-1,8.197448067E0
5.410221125E0,2.560126190E0,-8.456065521E0,3.658392334E-1,8.842687858E0
5.420261125E0,3.273093567E0,-8.964408417E0,1.321901093E0,9.634375032E0
5.430300125E0,4.162094879E0,-9.427245941E0,2.471360779E0,1.059734042E1
5.440339125E0,5.123844910E0,-9.623338165E0,3.467539215E0,1.144055297E1
5.450379125E0,5.888903961E0,-9.599837036E0,4.025429077E0,1.195993897E1
5.460418125E0,6.275699615E0,-9.156009979E0,4.248465271E0,1.188555348E1
5.470458125E0,6.254743195E0,-8.457412720E0,4.213887177E0,1.133165864E1
5.480497125E0,5.796845398E0,-7.812404022E0,4.028273163E0,1.052920025E1
5.490536125E0,5.307962036E0,-7.165149994E0,3.882326660E0,9.725548607E0
5.500576125E0,4.803810425E0,-6.602320404E0,3.459156647E0,8.867524684E0
5.510615125E0,4.273762665E0,-6.328988800E0,3.062331848E0,8.227941595E0
5.520655125E0,3.974534912E0,-6.065087585E0,2.824326782E0,7.781968707E0
5.530694125E0,3.876339111E0,-6.112688599E0,3.064277802E0,7.860074125E0
5.540733125E0,3.377725983E0,-6.407126312E0,3.302133179E0,7.960174868E0
5.550773125E0,2.741997986E0,-6.644382935E0,3.442241821E0,7.969655343E0
5.560812125E0,2.396516418E0,-6.871311035E0,3.440146179E0,8.049398240E0
5.570852125E0,2.159259796E0,-7.100185089E0,3.452270966E0,8.184937751E0
5.580891125E0,2.105072479E0,-7.236102448E0,3.544479218E0,8.328015472E0
5.590931125E0,1.911674652E0,-7.157964935E0,3.407214661E0,8.154757736E0
5.600970125E0,1.570084991E0,-6.936874695E0,3.164419556E0,7.784532647E0
5.611009125E0,1.346899109E0,-6.786138153E0,3.038082275E0,7.556173116E0
5.621049125E0,1.156644745E0,-6.784192200E0,2.997067566E0,7.506364291E0
5.631088125E0,1.041833496E0,-7.046446838E0,3.103645935E0,7.769842223E0
5.641128125E0,1.097368011E0,-7.421117706E0,3.619024200E0,8.329138054E0
5.651167125E0,1.362766113E0,-8.038134613E0,4.069138184E0,9.111894704E0
5.661206125E0,1.867067413E0,-8.870104523E0,4.414919128E0,1.008247023E1
5.671246125E0,2.657423859E0,-9.957892456E0,4.809797974E0,1.137346386E1
5.681285125E0,4.002227325E0,-1.120509888E1,4.966222687E0,1.289323203E1
5.691325125E0,5.740263062E0,-1.257834320E1,4.184997253E0,1.444574469E1
5.701364125E0,7.958350525E0,-1.366089203E1,9.824070740E-1,1.584046836E1
5.711403125E0,8.863218842E0,-1.391177032E1,-6.280938721E-1,1.650722580E1
5.721443125E0,7.584128723E0,-1.289134232E1,6.583309937E-1,1.497127633E1
5.731482125E0,6.307583313E0,-1.088880661E1,2.054477692E0,1.275039589E1
5.741522125E0,5.597759399E0,-9.157806244E0,2.889890442E0,1.111538539E1
5.751561125E0,5.354066162E0,-8.118517456E0,3.024161224E0,1.018439499E1
5.761601125E0,5.103337555E0,-7.620353394E0,2.715952148E0,9.565052855E0
5.771640125E0,4.946014709E0,-7.304659882E0,2.600093079E0,9.196825621E0
5.781679125E0,4.834795990E0,-7.243437195E0,2.642754364E0,9.100922222E0
5.791719125E0,4.678970032E0,-7.642058258E0,2.773282928E0,9.380027355E0
5.801758125E0,4.297712860E0,-8.423433380E0,2.977458344E0,9.914122449E0
5.811798125E0,3.889960785E0,-9.340725861E0,3.263812866E0,1.063171806E1
5.821837125E0,3.611240387E0,-1.033899994E1,3.561992798E0,1.151623938E1
5.831876125E0,3.702849884E0,-1.139849670E1,3.668571167E0,1.253376395E1
5.841916125E0,4.224215698E0,-1.255139923E1,3.572471008E0,1.371656553E1
5.851955125E0,5.139861603E0,-1.391760818E1,3.359463959E0,1.521196874E1
5.861995125E0,6.099515991E0,-1.545835419E1,3.131937103E0,1.691076106E1
5.872034125E0,6.788682861E0,-1.698937042E1,2.891986084E0,1.852264846E1
5.882073125E0,7.262896729E0,-1.816442688E1,2.476749573E0,1.971878194E1
5.892113125E0,7.558082886E0,-1.898906204E1,1.892963562E0,2.052540877E1
5.902152125E0,7.237150269E0,-1.921748703E1,1.227746887E0,2.057171636E1
5.912192125E0,6.949448547E0,-1.829570389E1,6.472540283E-1,1.958179138E1
5.922231125E0,6.899602203E0,-1.634600830E1,3.209326172E-1,1.774540773E1
5.932271125E0,6.773264923E0,-1.434511917E1,3.004252625E-1,1.586662589E1
5.942310125E0,6.671925659E0,-1.273401947E1,-8.449928284E-1,1.440082834E1
5.952349125E0,6.557413788E0,-1.120854172E1,-3.858675842E0,1.354697244E1
5.962389125E0,6.349496155E0,-9.603130188E0,-6.672674103E0,1.330641915E1
5.972428125E0,5.799090729E0,-8.143515472E0,-8.241860962E0,1.295664191E1
5.982468125E0,4.987179108E0,-7.052733765E0,-8.625662842E0,1.220717283E1
5.992507125E0,4.086951141E0,-6.240822144E0,-7.963589630E0,1.091191049E1
6.002546125E0,3.325334930E0,-5.695356445E0,-6.170019379E0,9.031283218E0
6.012586125E0,2.800226898E0,-5.502108307E0,-4.135001221E0,7.430524988E0
6.022625125E0,2.189047852E0,-5.483546906E0,-2.693199463E0,6.489571674E0
6.032665125E0,1.524130554E0,-5.381309509E0,-2.016606445E0,5.945432494E0
6.042704125E0,8.611592102E-1,-5.371729431E0,-1.583407288E0,5.666061322E0
6.052743125E0,1.847158813E-1,-5.372178497E0,-1.287472687E0,5.527387057E0
6.062783125E0,-4.029620361E-1,-5.460494843E0,-1.077758789E0,5.580407363E0
6.072822125E0,-9.593550110E-1,-5.970484314E0,-8.322692871E-1,6.104073816E0
6.082862125E0,-1.439257050E0,-6.854845276E0,2.998265076E-1,7.010724680E0
6.092901125E0,-1.104852448E0,-7.699987793E0,1.988764343E0,8.029053154E0
6.102941125E0,5.837860107E-3,-8.449030151E0,2.977757721E0,8.958414236E0
6.112980125E0,1.096170502E0,-8.813522186E0,3.881578217E0,9.692595759E0
6.123016125E0,2.209704895E0,-9.152417450E0,5.153632965E0,1.073356761E1
6.133056125E0,2.513123932E0,-9.653126221E0,6.614894257E0,1.196893745E1
6.143095125E0,2.947071533E0,-1.031445099E1,7.547005920E0,1.311603706E1
6.153135125E0,3.345842285E0,-1.080438217E1,7.991282043E0,1.384882390E1
6.163174125E0,3.522025909E0,-1.070424042E1,7.440427551E0,1.350353256E1
6.173213125E0,3.378175049E0,-1.011536499E1,6.194268951E0,1.233294950E1
6.183253125E0,3.376678162E0,-9.238787842E0,5.033283234E0,1.104948398E1
6.193292125E0,3.762725372E0,-8.138875122E0,4.052373047E0,9.839772243E0
6.203332125E0,4.535568237E0,-6.836882629E0,3.517984314E0,8.926956758E0
6.213371125E0,5.459297333E0,-5.806874542E0,3.480113068E0,8.696833118E0
6.223410125E0,6.336922302E0,-5.245092773E0,3.628005524E0,8.990550959E0
6.233450125E0,7.312892761E0,-5.037474518E0,3.783681793E0,9.652502161E0
6.243489125E0,8.483159180E0,-5.043761444E0,4.097728729E0,1.068620138E1
6.253529125E0,9.685159607E0,-5.382806396E0,4.318669281E0,1.189234315E1
6.263568125E0,1.065514252E1,-6.197412415E0,4.329596558E0,1.306466184E1
6.273607125E0,1.144460083E1,-7.258705444E0,4.643643494E0,1.432588977E1
6.283647125E0,1.244467117E1,-8.404123535E0,5.472619629E0,1.598276255E1
6.293686125E0,1.309821213E1,-9.589358826E0,6.131549377E0,1.735266151E1
6.303726125E0,1.172047714E1,-1.069211563E1,6.326593781E0,1.707971633E1
6.313765125E0,8.457113342E0,-1.160072617E1,5.967939606E0,1.554721572E1
6.323805125E0,6.440057831E0,-1.212778015E1,5.255570984E0,1.470300726E1
6.333844125E0,6.576723633E0,-1.226339813E1,4.628973999E0,1.466532058E1
6.343883125E0,7.119195557E0,-1.238449631E1,3.878434753E0,1.480205899E1
6.353923125E0,7.151228943E0,-1.241802658E1,3.032543793E0,1.464731311E1
6.363962125E0,6.700665894E0,-1.173305099E1,2.329755249E0,1.371098715E1
6.374002125E0,5.702391815E0,-1.054212753E1,1.977388000E0,1.214758365E1
6.384041125E0,4.585863647E0,-9.286837921E0,1.954934692E0,1.054026914E1
6.394080125E0,4.145629120E0,-8.672665100E0,2.934946747E0,1.005063546E1
6.404120125E0,4.443060608E0,-9.535770264E0,4.403393097E0,1.140445408E1
6.414159125E0,4.782255249E0,-1.134745285E1,4.472249908E0,1.310097976E1
6.424199125E0,4.622088318E0,-1.284853134E1,3.138523407E0,1.401066691E1
6.434238125E0,4.170627136E0,-1.373319168E1,1.440304871E0,1.442460268E1
6.444277125E0,3.569626923E0,-1.420800430E1,4.842430115E-1,1.465756166E1
6.454317125E0,3.091820526E0,-1.421249496E1,1.219963074E-1,1.454542025E1
6.464356125E0,2.598745880E0,-1.376283005E1,-6.107299805E-2,1.400616653E1
6.474396125E0,1.850451965E0,-1.319236633E1,-5.607339478E-1,1.333330884E1
6.484435125E0,9.596543884E-1,-1.252400620E1,-1.388063507E0,1.263718276E1
6.494474125E0,2.546205139E-1,-1.187405777E1,-2.516267395E0,1.214041520E1
6.504514125E0,-1.155596924E-1,-1.129805557E1,-4.587061157E0,1.219428324E1
6.514553125E0,1.044827271E-1,-1.108774292E1,-1.165506317E1,1.608693436E1
6.524593125E0,1.364263000E0,-1.032657578E1,-1.286469772E1,1.655294017E1
6.534632125E0,2.034269714E0,-8.906628571E0,-5.590873718E0,1.071093622E1
6.544672125E0,1.868564301E0,-7.875722351E0,-1.023421783E0,8.158794472E0
6.554711125E0,2.073188782E0,-7.562423859E0,1.556762695E-2,7.841467254E0
6.564750125E0,2.671195221E0,-7.701933746E0,7.339237976E-1,8.184968630E0
6.574790125E0,3.261118469E0,-7.959548035E0,1.603465576E0,8.749880024E0
6.584829125E0,4.077221375E0,-8.307274933E0,2.333347778E0,9.543535131E0
6.594869125E0,4.987029419E0,-8.704848175E0,3.189567261E0,1.052702159E1
6.604908125E0,5.585335236E0,-9.059909821E0,4.236789551E0,1.145549306E1
6.614947125E0,6.014642487E0,-9.165140991E0,4.821773071E0,1.197602727E1
6.624987125E0,6.249354401E0,-9.101822662E0,4.741839294E0,1.201593301E1
6.635026125E0,5.984255676E0,-8.799152069E0,4.581522675E0,1.158562658E1
6.645066125E0,5.518125000E0,-8.422535248E0,4.431085510E0,1.100106005E1
6.655105125E0,4.843178558E0,-8.125702515E0,4.174369354E0,1.033967018E1
6.665144125E0,4.242178345E0,-7.812404022E0,4.137246552E0,9.805434347E0
6.675184125E0,3.688180389E0,-7.527396698E0,3.962410126E0,9.271734985E0
6.685223125E0,3.139271851E0,-7.500153351E0,3.652404785E0,8.913326470E0
6.695263125E0,3.042572937E0,-7.619904327E0,3.554508362E0,8.941740420E0
6.705302125E0,2.995570679E0,-7.838150482E0,3.473826141E0,9.081713205E0
6.715342125E0,2.957549744E0,-8.140372009E0,3.429967346E0,9.315440566E0
6.725381125E0,2.621049500E0,-8.401728516E0,3.398083649E0,9.434294622E0
6.735420125E0,2.274370422E0,-8.580456848E0,2.912044373E0,9.342216170E0
6.745460125E0,2.374961243E0,-8.690478058E0,2.515818329E0,9.353832992E0
6.755499125E0,2.640209656E0,-8.799301758E0,1.866917725E0,9.374636006E0
6.765539125E0,3.050356750E0,-9.019942932E0,-4.947212219E-1,9.534610422E0
6.775578125E0,3.702700195E0,-9.596394196E0,-4.285588074E0,1.114302631E1
6.785617125E0,3.891607361E0,-9.653575287E0,-4.004472656E0,1.115221614E1
6.795657125E0,3.445684662E0,-8.781339111E0,-1.667831726E0,9.579473996E0
6.805696125E0,2.795736237E0,-7.558831329E0,6.251000977E-1,8.083490725E0
6.815736125E0,2.561772766E0,-6.565796356E0,2.605631561E0,7.514098571E0
6.825775125E0,2.841690674E0,-5.829477539E0,3.752396851E0,7.492562738E0
6.835814125E0,3.423231354E0,-5.840255127E0,4.114044800E0,7.921644871E0
6.845854125E0,3.888164520E0,-6.515051880E0,4.290378113E0,8.716138404E0
6.855893125E0,4.018393707E0,-7.572003937E0,4.876110077E0,9.862006950E0
6.865933125E0,4.500391388E0,-8.656498718E0,5.666616211E0,1.128268727E1
6.875972125E0,5.133275299E0,-9.477990417E0,6.568939819E0,1.262274883E1
6.886011125E0,5.959107971E0,-1.005369324E1,7.261848907E0,1.375943913E1
6.896051125E0,7.040159912E0,-1.059002792E1,7.672594757E0,1.485197809E1
6.906090125E0,8.250692596E0,-1.111079498E1,7.194638672E0,1.559764466E1
6.916130125E0,8.853489075E0,-1.158381134E1,5.682034149E0,1.564782624E1
6.926169125E0,8.556057587E0,-1.198392929E1,3.873345337E0,1.522575078E1
6.936208125E0,7.785460052E0,-1.185085602E1,2.628833313E0,1.442105895E1
6.946248125E0,7.530091095E0,-1.047776138E1,2.150428162E0,1.308090581E1
6.956287125E0,7.227270813E0,-9.118587799E0,1.914818115E0,1.179188769E1
6.966327125E0,6.255042572E0,-8.254883881E0,1.760039978E0,1.050554169E1
6.976366125E0,5.124144287E0,-7.667355652E0,1.650018768E0,9.368444871E0
6.986405125E0,4.175566864E0,-7.359745331E0,1.570534058E0,8.606264416E0
6.996445125E0,3.264411621E0,-7.367828522E0,1.567091217E0,8.209570953E0
7.006484125E0,2.452200623E0,-7.660469971E0,1.785337372E0,8.239145441E0
7.016524125E0,1.764830017E0,-8.214318237E0,2.160906372E0,8.675204058E0
7.026563125E0,1.328337708E0,-9.006920013E0,2.674039307E0,9.488918558E0
7.036603125E0,1.523681488E0,-1.003438339E1,3.068319397E0,1.060306745E1
7.046642125E0,2.109712830E0,-1.140328674E1,3.494183807E0,1.211177763E1
7.056681125E0,2.692151642E0,-1.317320618E1,3.785328369E0,1.396816925E1
7.066721125E0,3.319048004E0,-1.519744675E1,3.572620697E0,1.596064178E1
7.076760125E0,3.735931091E0,-1.729608261E1,3.160377960E0,1.797497270E1
7.086800125E0,3.891158295E0,-1.892245056E1,2.389780426E0,1.946564406E1
7.096839125E0,3.943399658E0,-1.961805405E1,1.490600281E0,2.006589980E1
7.106878125E0,4.157005463E0,-1.924083847E1,1.105451202E0,1.971579524E1
7.116918125E0,4.752916260E0,-1.800021835E1,1.246457977E0,1.865882449E1
7.126960792E0,5.651497650E0,-1.620829468E1,1.581910400E0,1.723805913E1
7.137000792E0,6.662345581E0,-1.443373489E1,1.512903900E0,1.596898337E1
7.147039792E0,7.726482697E0,-1.279449371E1,8.696914673E-1,1.497177236E1
7.157078792E0,8.482710114E0,-1.101664078E1,-4.662803650E-1,1.391187127E1
7.167118792E0,8.650062103E0,-9.042396240E0,-2.165397034E0,1.269950584E1
7.177157792E0,8.511899414E0,-7.070546722E0,-4.252955933E0,1.185464874E1
7.187197792E0,7.890541534E0,-5.220843201E0,-5.808670807E0,1.110218474E1
7.197236792E0,6.959627380E0,-3.663781128E0,-6.073619843E0,9.937231175E0
7.207275792E0,5.961802368E0,-2.527943115E0,-5.480253754E0,8.483322761E0
7.217315792E0,4.992717590E0,-1.617386627E0,-4.936883698E0,7.205275087E0
7.227354792E0,4.107757874E0,-1.116079102E0,-4.199517059E0,5.979569453E0
7.237394792E0,3.264411621E0,-1.202599182E0,-3.354224854E0,4.832540987E0
7.247433792E0,2.419718170E0,-1.861678619E0,-2.653681641E0,4.045109338E0
7.257472792E0,1.733096008E0,-2.955154724E0,-2.045346680E0,3.989988002E0
7.267512792E0,1.235830078E0,-4.245172119E0,-1.277593231E0,4.602282778E0
7.277551792E0,6.258485413E-1,-5.693410492E0,-2.231858826E-1,5.732052108E0
7.287591792E0,1.011895752E-1,-7.385342102E0,7.063810730E-1,7.419736620E0
7.297630792E0,-3.532653809E-2,-9.006321259E0,2.021845551E0,9.230543321E0
7.307670792E0,5.837860107E-3,-1.073133408E1,4.429438934E0,1.160954325E1
7.317709792E0,5.655239868E-1,-1.227013412E1,5.755830688E0,1.356486623E1
7.327748792E0,1.359323273E0,-1.362107483E1,6.663243713E0,1.522433105E1
7.337788792E0,1.835034027E0,-1.430380508E1,7.123985596E0,1.608469336E1
7.347827792E0,2.086211700E0,-1.342707825E1,6.813980255E0,1.520095512E1
7.357867792E0,2.540816345E0,-1.160776154E1,5.802683258E0,1.322372900E1
7.367906792E0,2.840942230E0,-1.003303619E1,4.477189636E0,1.134803926E1
7.377945792E0,3.076851654E0,-8.660839691E0,3.533102875E0,9.846825691E0
7.387985792E0,3.567231903E0,-7.495513000E0,3.097359009E0,8.860106739E0
7.398024792E0,4.401746521E0,-6.785240021E0,3.216810608E0,8.704178598E0
7.408064792E0,5.607489166E0,-6.265071716E0,3.849993896E0,9.247567862E0
7.418103792E0,7.285649414E0,-5.849236450E0,4.859494629E0,1.053133147E1
7.428142792E0,9.249116364E0,-5.679339752E0,5.710924072E0,1.226440815E1
7.438182792E0,1.046833099E1,-5.874384155E0,5.849086761E0,1.335313293E1
7.448221792E0,1.117396362E1,-6.303691406E0,6.003565521E0,1.416463156E1
7.458261792E0,1.148112488E1,-7.227719879E0,5.775140533E0,1.474477573E1
7.468300792E0,1.118474121E1,-8.488098907E0,5.460794220E0,1.506540848E1
7.478339792E0,1.060619431E1,-9.558373260E0,5.210215302E0,1.519869075E1
7.488379792E0,8.796457672E0,-1.026430527E1,5.060077515E0,1.443391889E1
7.498418792E0,7.739206238E0,-1.048045578E1,4.138743439E0,1.366983774E1
7.508458792E0,7.989036713E0,-1.067220703E1,3.182082825E0,1.370570544E1
7.518497792E0,8.631949768E0,-1.085407883E1,3.026107178E0,1.419432664E1
7.528536792E0,9.100176086E0,-1.088775879E1,2.964585114E0,1.449638787E1
7.538576792E0,8.952133942E0,-1.076995377E1,2.729124756E0,1.426817186E1
7.548615792E0,8.212821350E0,-1.056652679E1,2.357747040E0,1.358899901E1
7.558655792E0,7.284152527E0,-1.033346146E1,2.312241669E0,1.285246145E1
7.568694792E0,6.452481995E0,-1.018586838E1,2.908152466E0,1.240337814E1
7.578734792E0,6.353388062E0,-1.032792297E1,4.310436401E0,1.286900908E1
7.588773792E0,6.685996399E0,-1.070678513E1,4.698579254E0,1.346901788E1
7.598812792E0,6.429280243E0,-1.108894043E1,3.668122101E0,1.333249279E1
7.608852792E0,5.566474457E0,-1.182915115E1,2.318977661E0,1.327750399E1
7.618891792E0,4.545447693E0,-1.252924530E1,1.249451752E0,1.338671775E1
7.628931792E0,3.799399109E0,-1.264914597E1,6.601272583E-1,1.322392133E1
7.638970792E0,3.203488312E0,-1.273716293E1,6.497987366E-1,1.314990096E1
7.649009792E0,2.544708252E0,-1.319565948E1,7.839198303E-1,1.346163065E1
7.659049792E0,1.813478851E0,-1.383378250E1,6.285429382E-1,1.396629192E1
7.669088792E0,1.104702759E0,-1.453013443E1,8.083190918E-2,1.457229249E1
7.679128792E0,5.408253479E-1,-1.503024445E1,-1.439706116E0,1.510872244E1
7.689167792E0,-1.009351044E0,-1.605112152E1,-1.131482071E1,1.966424317E1
7.699206792E0,-7.051835632E-1,-1.603645203E1,-2.048639832E1,2.602609447E1
7.709246792E0,1.440304871E0,-1.391102188E1,-1.278311737E1,1.894727151E1
7.719285792E0,2.103725281E0,-1.221744370E1,-5.470673676E0,1.355064061E1
7.729325792E0,1.657503204E0,-1.057041870E1,-6.200106812E-1,1.071753151E1
7.739364792E0,1.346300354E0,-8.941655731E0,1.011147308E0,9.098799412E0
7.749403792E0,2.276466064E0,-8.422684937E0,1.294657745E0,8.820434114E0
7.759443792E0,3.040327606E0,-8.410709839E0,1.402283936E0,9.052625707E0
7.769482792E0,3.438499603E0,-8.189020844E0,1.867965546E0,9.075937262E0
7.779522792E0,4.184398499E0,-7.929310913E0,2.719844055E0,9.369136248E0
7.789561792E0,5.115911407E0,-7.580685883E0,3.225791931E0,9.697684340E0
7.799600792E0,5.911057892E0,-7.163353729E0,3.606001282E0,9.962805192E0
7.809640792E0,6.433172150E0,-6.874005432E0,3.838916931E0,1.016734664E1
7.819679792E0,6.580615540E0,-6.952592010E0,4.185596008E0,1.044807401E1
7.829719792E0,6.784790955E0,-6.981332245E0,4.625980225E0,1.077831533E1
7.839758792E0,6.872209167E0,-6.956184540E0,4.531526642E0,1.077731395E1
7.849797792E0,6.738836517E0,-6.854845276E0,4.222868500E0,1.049921139E1
7.859837792E0,6.391858063E0,-6.687044220E0,4.209995270E0,1.016348710E1
7.869876792E0,6.207291870E0,-6.580465851E0,4.248165894E0,9.993994028E0
7.879916792E0,5.776188354E0,-6.598428497E0,4.145928497E0,9.700120290E0
7.889955792E0,5.011578369E0,-6.694079590E0,4.219575348E0,9.366506041E0
7.899994792E0,4.494852905E0,-6.599476318E0,4.269721069E0,9.054684331E0
7.910034792E0,4.195475464E0,-6.570586395E0,4.129911804E0,8.822176118E0
7.920073792E0,3.905528412E0,-6.787784729E0,3.707639923E0,8.664511960E0
7.930113792E0,3.639381866E0,-6.916217651E0,3.100053406E0,8.407704686E0
7.940152792E0,3.578907623E0,-7.049739990E0,2.575544128E0,8.315097189E0
7.950191792E0,3.456162872E0,-7.167245636E0,2.077978821E0,8.223896144E0
7.960231792E0,3.094514923E0,-7.371271362E0,1.647474060E0,8.162465001E0
7.970270792E0,2.592309265E0,-7.539671173E0,1.094972992E0,8.047712382E0
7.980310792E0,2.208806763E0,-7.748337250E0,5.602848816E-1,8.076476744E0
7.990349792E0,1.864073639E0,-8.095914459E0,2.531236267E-1,8.311598705E0
8.000389792E0,1.832788696E0,-8.454718323E0,4.129911804E-1,8.660943253E0
8.010428792E0,1.877395935E0,-8.855884094E0,1.467548218E0,9.170877622E0
8.020467792E0,1.919159088E0,-9.226064301E0,3.533851318E0,1.006436979E1
8.030507792E0,2.292333069E0,-9.572144623E0,5.350922699E0,1.120326369E1
8.040546792E0,3.162174225E0,-9.869127045E0,6.260281677E0,1.210744156E1
8.050586792E0,4.818330231E0,-9.983489227E0,6.019582214E0,1.261434633E1
8.060625792E0,7.076833649E0,-1.014260834E1,4.712200928E0,1.323476165E1
8.070664792E0,8.495583344E0,-1.068283493E1,3.299588470E0,1.404226415E1
8.080704792E0,8.775800629E0,-1.129461273E1,2.336491241E0,1.449283081E1
8.090743792E0,7.778274994E0,-1.158351196E1,2.040406952E0,1.410115498E1
8.100783792E0,6.710695038E0,-1.131107849E1,2.471660156E0,1.338219072E1
8.110822792E0,6.203849030E0,-1.074929672E1,2.712060242E0,1.270395189E1
8.120861750E0,5.746250610E0,-1.012554382E1,2.850971375E0,1.198641196E1
8.130901750E0,5.193749542E0,-9.225166168E0,2.968626709E0,1.099506570E1
8.140940750E0,4.596790924E0,-8.363857269E0,2.911894684E0,9.978162450E0
8.150980750E0,4.061354370E0,-7.826025696E0,2.797382812E0,9.250223138E0
8.161019750E0,3.625610504E0,-7.664810944E0,2.824626160E0,8.937163491E0
8.171058750E0,3.264710999E0,-7.918683014E0,3.013832703E0,9.080036682E0
8.181098750E0,2.864443359E0,-8.534801788E0,3.256178741E0,9.573430802E0
8.191137750E0,2.885998535E0,-9.532926178E0,3.399879913E0,1.052448823E1
8.201177750E0,3.544778595E0,-1.108130630E1,3.469784546E0,1.214084880E1
8.211216750E0,4.584366760E0,-1.279778687E1,3.200195160E0,1.396570859E1
8.221255750E0,5.697601776E0,-1.463551529E1,2.896027679E0,1.597022073E1
8.231295750E0,6.531966705E0,-1.644689850E1,2.530038757E0,1.787646932E1
8.241334750E0,7.111112366E0,-1.787582703E1,2.182760925E0,1.936175499E1
8.251374750E0,7.360194397E0,-1.870944351E1,1.846410370E0,2.018972435E1
8.261413750E0,7.345674591E0,-1.848116821E1,1.547032928E0,1.994757691E1
8.271452750E0,7.120991821E0,-1.714414856E1,1.702260132E0,1.864210406E1
8.281492750E0,6.782246246E0,-1.535746399E1,1.817969513E0,1.688655019E1
8.291531750E0,6.566993866E0,-1.370460114E1,1.606159973E0,1.528140211E1
8.301571750E0,6.449338531E0,-1.213406708E1,9.232800293E-1,1.377250875E1
8.311610750E0,6.448290710E0,-1.053733749E1,2.769241333E-2,1.235381323E1
8.321649750E0,6.313271484E0,-8.991352386E0,-1.216969299E0,1.105363419E1
8.331689750E0,6.334078217E0,-7.422015839E0,-3.737278290E0,1.044864178E1
8.341728750E0,6.364614716E0,-5.867348785E0,-6.903643799E0,1.107223554E1
8.351768750E0,5.829178162E0,-4.402794342E0,-8.306975555E0,1.106208655E1
8.361807750E0,4.929998016E0,-3.552412720E0,-7.297774200E0,9.496421687E0
8.371846750E0,4.356690216E0,-3.098855896E0,-5.388644257E0,7.590859268E0
8.381886750E0,4.212689667E0,-2.805615692E0,-3.936364288E0,6.411957381E0
8.391925750E0,3.699556732E0,-3.143912201E0,-3.178789673E0,5.803068820E0
8.401965750E0,2.977608032E0,-3.916755066E0,-2.518363037E0,5.527139606E0
8.412004750E0,2.270328827E0,-4.660708008E0,-1.882635040E0,5.515515099E0
8.422043750E0,1.513652344E0,-5.477858734E0,-9.889933777E-1,5.768551606E0
8.432083750E0,8.074209595E-1,-6.579867096E0,-6.586303711E-2,6.629548819E0
8.442122750E0,5.322930908E-1,-7.759563904E0,9.033714294E-1,7.830086069E0
8.452162750E0,6.490502930E-1,-8.699758759E0,2.006726990E0,8.951760830E0
8.462201750E0,1.206042023E0,-9.477241974E0,3.079096985E0,1.003760385E1
8.472240750E0,1.959125977E0,-1.005219635E1,4.127516785E0,1.104179428E1
8.482280750E0,2.413131866E0,-1.055170761E1,5.051096191E0,1.194467713E1
8.492319750E0,2.719694366E0,-1.086246140E1,5.761668549E0,1.259311834E1
8.502359750E0,2.769540710E0,-1.079629898E1,5.764662323E0,1.254837675E1
8.512398750E0,2.475102997E0,-1.022164398E1,5.264402618E0,1.176104058E1
8.522437750E0,2.401456146E0,-9.535321198E0,4.803211670E0,1.094349964E1
8.532477750E0,2.521955566E0,-8.826245728E0,4.397106171E0,1.017828159E1
8.542516750E0,3.134481812E0,-7.896229706E0,4.120481415E0,9.442128303E0
8.552556750E0,4.071383514E0,-7.140451355E0,4.475393372E0,9.359025329E0
8.562595750E0,5.355113983E0,-6.583459625E0,5.103636932E0,9.902842842E0
8.572634750E0,7.280709686E0,-6.189478912E0,5.024301910E0,1.079638793E1
8.582674750E0,8.849297791E0,-6.144871674E0,5.386099548E0,1.204489882E1
8.592713750E0,9.862540741E0,-6.335724792E0,6.226452026E0,1.327327478E1
8.602753750E0,9.748328247E0,-7.129823456E0,6.007906494E0,1.348922631E1
8.612792750E0,8.722062378E0,-8.434061279E0,5.428611145E0,1.329201192E1
8.622831750E0,8.199648743E0,-9.693093109E0,5.121000824E0,1.368995774E1
8.632871750E0,9.424252167E0,-1.028136978E1,5.549709320E0,1.501074172E1
8.642910750E0,1.075708054E1,-1.044243484E1,6.302793274E0,1.626297729E1
8.652950750E0,1.034289185E1,-1.025292892E1,6.270161133E0,1.585600466E1
8.662989750E0,8.902137909E0,-1.019559814E1,5.901777191E0,1.476581372E1
8.673028750E0,7.758067017E0,-1.026400589E1,5.501210175E0,1.399288155E1
8.683068750E0,7.736362152E0,-9.808054047E0,4.845274200E0,1.339872776E1
8.693107750E0,7.762258301E0,-9.358538818E0,3.969744873E0,1.279037830E1
8.703147750E0,7.363337860E0,-9.006920013E0,3.275488586E0,1.208603235E1
8.713186750E0,6.645430756E0,-8.717422028E0,2.949616241E0,1.135145069E1
8.723225750E0,6.372847595E0,-8.576115875E0,2.909349976E0,1.107371967E1
8.733265750E0,6.722969513E0,-8.771908722E0,4.123924255E0,1.179624741E1
8.743304750E0,7.547904053E0,-9.647737427E0,5.846392365E0,1.357313511E1
8.753344750E0,8.241411896E0,-1.098834961E1,5.338797913E0,1.473660274E1
8.763383750E0,7.989635468E0,-1.218017120E1,3.130589905E0,1.489937712E1
8.773422750E0,6.925348663E0,-1.308369232E1,1.488654327E0,1.487815683E1
8.783462750E0,5.248086548E0,-1.323218353E1,5.086422729E-1,1.424400963E1
8.793501750E0,3.558999023E0,-1.249796036E1,2.312690735E-1,1.299688319E1
8.803541750E0,2.293081512E0,-1.165476379E1,5.944139099E-1,1.189306814E1
8.813580750E0,1.309776306E0,-1.109956833E1,1.015787659E0,1.122264477E1
8.823619750E0,5.999523926E-1,-1.086246140E1,1.179696808E0,1.094279192E1
8.833659750E0,-3.173400879E-2,-1.123144409E1,6.662644958E-1,1.125123335E1
8.843698750E0,-6.336323547E-1,-1.211041626E1,-5.514532471E-1,1.213951287E1
8.853738750E0,-1.044527893E0,-1.355865463E1,-1.706750793E0,1.370551539E1
8.863777750E0,-8.919950867E-1,-1.506527161E1,-2.391876068E0,1.528002405E1
8.873816750E0,-1.020877075E-1,-1.567390594E1,-2.528841248E0,1.587692626E1
8.883856750E0,1.577569427E0,-1.575294159E1,-2.873274994E0,1.609035746E1
8.893895750E0,4.731061707E0,-1.537018753E1,-5.174290009E0,1.689375289E1
8.903935750E0,6.979386292E0,-1.443747711E1,-6.345604248E0,1.724584795E1
8.913974750E0,6.860832825E0,-1.297292267E1,-4.580025787E0,1.537349621E1
8.924013750E0,5.807922363E0,-1.105585922E1,-1.913919983E0,1.263436089E1
8.934053750E0,4.869823151E0,-9.158404999E0,1.459465027E-1,1.037366184E1
8.944092750E0,4.466861115E0,-7.797135773E0,1.263971558E0,9.074458583E0
8.954132750E0,4.380341034E0,-6.864874420E0,1.625320129E0,8.303948091E0
8.964171750E0,4.293970642E0,-6.250252533E0,1.544787598E0,7.738876490E0
8.974210750E0,4.241579590E0,-5.871839447E0,1.474882965E0,7.392210472E0
8.984250750E0,4.187991028E0,-5.501359863E0,1.540296936E0,7.083554464E0
8.994289750E0,4.237088928E0,-5.353766785E0,1.866917725E0,7.078214687E0
9.004329750E0,4.453838196E0,-5.400020599E0,2.615660706E0,7.472521534E0
9.014368750E0,4.887336731E0,-5.329068146E0,3.261118469E0,7.932207845E0
9.024407750E0,5.426515503E0,-5.232668610E0,3.790268097E0,8.437655097E0
9.034447750E0,6.009253693E0,-5.358407135E0,4.450545044E0,9.199511300E0
9.044486750E0,6.365213470E0,-5.456902313E0,5.105283508E0,9.816193003E0
9.054526750E0,6.743925934E0,-5.453758850E0,5.318589935E0,1.017405630E1
9.064565750E0,7.139702911E0,-5.311554565E0,4.983885956E0,1.019936708E1
9.074604750E0,7.140900421E0,-5.279072113E0,4.489015045E0,9.950493318E0
9.084644750E0,6.717431030E0,-5.355563049E0,4.208199005E0,9.566340684E0
9.094683750E0,5.956712952E0,-5.571264496E0,4.141288147E0,9.147222791E0
9.104723750E0,5.363047485E0,-5.670807495E0,3.995341644E0,8.768300339E0
9.114762750E0,4.755460968E0,-5.709277496E0,3.697012024E0,8.299286503E0
9.124798750E0,4.036805420E0,-5.876180420E0,3.446283417E0,7.918469784E0
9.134838750E0,3.129991150E0,-6.344556427E0,3.200494537E0,7.764882880E0
9.144877750E0,2.476599884E0,-7.174730072E0,2.874472504E0,8.116211602E0
9.154917750E0,2.565215607E0,-7.937244415E0,2.674488373E0,8.759741325E0
9.164956750E0,2.279310150E0,-8.901838531E0,2.731070709E0,9.586278278E0
9.174995750E0,2.182910614E0,-9.967173157E0,2.832110596E0,1.058916852E1
9.185035750E0,2.373164978E0,-1.099822906E1,2.928809509E0,1.162630121E1
9.195074750E0,2.571801910E0,-1.171763306E1,2.969225464E0,1.235853508E1
9.205114750E0,2.509531403E0,-1.207883194E1,3.426524506E0,1.280378847E1
9.215153750E0,2.138752441E0,-1.227806763E1,4.122127991E0,1.312696255E1
9.225192750E0,2.024539948E0,-1.197749268E1,4.429888000E0,1.292992655E1
9.235232750E0,2.543810120E0,-1.119132751E1,4.546645203E0,1.234458440E1
9.245271750E0,3.689377899E0,-1.100885696E1,4.446503448E0,1.243293344E1
9.255311750E0,4.993316345E0,-1.117680771E1,3.852089539E0,1.283327053E1
9.265350750E0,5.697452087E0,-1.117561020E1,3.294199677E0,1.296946318E1
9.275389750E0,5.525010681E0,-1.106259521E1,2.951711884E0,1.271296028E1
9.285429750E0,5.063220978E0,-1.067160828E1,2.630779266E0,1.210125735E1
9.295468750E0,4.895270233E0,-9.894873505E0,2.349663849E0,1.128685574E1
9.305508750E0,4.722828827E0,-9.040899353E0,2.273621979E0,1.045047033E1
9.315547750E0,4.399800568E0,-8.514294434E0,2.387086029E0,9.876721847E0
9.325586750E0,4.130809937E0,-8.252189484E0,2.584226074E0,9.583342131E0
9.335626750E0,4.081861725E0,-8.330027618E0,2.717748413E0,9.666287379E0
9.345665750E0,4.511019287E0,-8.942104797E0,2.814597015E0,1.040348449E1
9.355705750E0,5.190905457E0,-9.843979340E0,3.026705933E0,1.153301251E1
9.365744750E0,5.838009796E0,-1.072190369E1,3.200344849E0,1.262076797E1
9.375783750E0,6.359674988E0,-1.164892593E1,3.295846252E0,1.367499703E1
9.385823750E0,6.811884613E0,-1.266950363E1,3.339255981E0,1.476715019E1
9.395862750E0,7.079078979E0,-1.375070526E1,3.300636292E0,1.581421684E1
9.405902750E0,7.319179688E0,-1.485256393E1,3.127596130E0,1.685084284E1
9.415941750E0,7.317533112E0,-1.567210968E1,2.724484406E0,1.750954391E1
9.425980750E0,6.959627380E0,-1.592523331E1,2.060315552E0,1.750126765E1
9.436020750E0,6.580914917E0,-1.541464508E1,1.401984558E0,1.681919394E1
9.446059750E0,6.223607941E0,-1.417627029E1,9.107061768E-1,1.550900774E1
9.456099750E0,6.013594666E0,-1.281365387E1,6.809339905E-1,1.417098153E1
9.466138750E0,6.096522217E0,-1.180100967E1,6.011499023E-1,1.329634512E1
9.476177750E0,5.938899994E0,-1.102262833E1,3.056643677E-1,1.252446802E1
9.486217750E0,5.767656097E0,-1.014664993E1,-4.239184570E-1,1.167904399E1
9.496256750E0,5.599705353E0,-9.218280487E0,-1.171164551E0,1.084919451E1
9.506295750E0,5.300477600E0,-8.353079681E0,-2.113305359E0,1.011607940E1
9.516335750E0,4.779261475E0,-7.541916504E0,-3.064577179E0,9.439993542E0
9.526374750E0,4.093537445E0,-6.740782471E0,-3.779191132E0,8.745140521E0
9.536414750E0,3.306773529E0,-5.947432251E0,-4.159400482E0,7.975419357E0
9.546453750E0,2.519710236E0,-5.409450989E0,-4.349056091E0,7.384130860E0
9.556492750E0,1.573527832E0,-5.203030243E0,-4.093088379E0,6.804475441E0
9.566532750E0,8.396040344E-1,-5.064268799E0,-3.587290192E0,6.262619605E0
9.576571750E0,5.887257385E-1,-5.082381134E0,-2.843337250E0,5.853354825E0
9.586611750E0,8.530760193E-1,-5.495971069E0,-1.873803406E0,5.868950153E0
9.596650750E0,1.558259583E0,-6.171516266E0,-9.372010803E-1,6.433827151E0
9.606689750E0,2.608475647E0,-6.832092590E0,1.339714050E-1,7.314340893E0
9.616729750E0,4.026027832E0,-7.518864441E0,1.905537415E0,8.739181622E0
9.626768750E0,5.406906281E0,-8.086633759E0,3.002306671E0,1.018047771E1
9.636808750E0,5.924829254E0,-8.596473541E0,3.684288483E0,1.107144709E1
9.646847750E0,6.097120972E0,-8.989556122E0,4.538711700E0,1.177229405E1
9.656886750E0,6.159990234E0,-9.145681458E0,5.049000549E0,1.212771106E1
9.666926750E0,5.818550262E0,-9.021888885E0,5.138664093E0,1.190192736E1
9.676965750E0,4.981041870E0,-8.675958252E0,5.060526581E0,1.121124253E1
9.687005750E0,4.509372711E0,-8.234975281E0,4.810097351E0,1.054923204E1
9.697044750E0,4.630021820E0,-7.745642853E0,4.246219940E0,9.973087237E0
9.707083750E0,4.634811859E0,-7.150779877E0,4.129462738E0,9.469297562E0
9.717123750E0,4.724625092E0,-6.519991608E0,4.288132782E0,9.122524627E0
9.727162750E0,5.168302460E0,-5.885910187E0,4.299658813E0,8.935454938E0
9.737202750E0,5.896837463E0,-5.475912781E0,4.713997192E0,9.326311296E0
9.747241750E0,6.477330322E0,-5.228627014E0,5.207071838E0,9.818754793E0
9.757280750E0,6.512207794E0,-5.220693512E0,5.450166321E0,9.968390242E0
9.767320750E0,5.839806061E0,-5.670957184E0,5.562283173E0,9.859111740E0
9.777359750E0,5.282964020E0,-6.703959045E0,6.141129456E0,1.051504858E1
9.787399750E0,5.539081421E0,-8.146060181E0,6.083948364E0,1.157817547E1
9.797438750E0,6.546785889E0,-9.182504883E0,6.095923462E0,1.281948065E1
9.807477750E0,7.461683350E0,-1.007060806E1,6.745572510E0,1.423364372E1
9.817517750E0,7.667804718E0,-1.076980408E1,7.775131531E0,1.533742414E1
9.827556750E0,7.693251801E0,-1.109088638E1,8.516390076E0,1.596003709E1
9.837596750E0,7.371720428E0,-1.130688721E1,9.035959625E0,1.624304549E1
9.847635750E0,6.939868469E0,-1.167287613E1,9.344468079E0,1.648444404E1
9.857674750E0,6.089486847E0,-1.225291992E1,8.106692047E0,1.590390998E1
9.867714750E0,5.704936523E0,-1.207269470E1,5.923182678E0,1.460754432E1
9.877753750E0,6.229146423E0,-1.122410934E1,4.534071350E0,1.361398908E1
9.887793750E0,6.874604187E0,-1.098999619E1,3.788920898E0,1.350541078E1
9.897832750E0,7.804620209E0,-1.142409348E1,3.720513153E0,1.432704528E1
9.907871750E0,8.747060394E0,-1.243119919E1,5.399272156E0,1.613065152E1
9.917911750E0,9.289382629E0,-1.375190277E1,6.175258484E0,1.770709679E1
9.927950750E0,8.551866302E0,-1.421474030E1,4.524341583E0,1.719485172E1
9.937990750E0,6.395749969E0,-1.384785324E1,1.989363098E0,1.538265980E1
9.948029750E0,4.507875824E0,-1.299836975E1,3.285667419E-1,1.376177738E1
9.958068750E0,3.410807190E0,-1.180714691E1,-1.532812500E-1,1.229088357E1
9.968108750E0,2.901865540E0,-1.089075256E1,6.750961304E-2,1.127093042E1
9.978147750E0,2.680775299E0,-1.087278992E1,6.572831726E-1,1.121767079E1
9.988186750E0,2.231409760E0,-1.216026260E1,3.224295044E-1,1.236750326E1
9.998226750E0,1.310524750E0,-1.407178757E1,-1.027164001E0,1.416995929E1
1.000826575E1,7.723937988E-1,-1.491767853E1,-2.572400665E0,1.515753839E1
1.001830575E1,1.438209229E0,-1.421743469E1,-5.989195404E0,1.549433305E1
1.002834475E1,4.970413971E0,-1.289224045E1,-1.510314285E1,2.046997320E1
1.003838375E1,6.895859985E0,-1.108474915E1,-1.283835251E1,1.830977454E1
1.004842375E1,5.439388733E0,-9.776918793E0,-5.133724365E0,1.230976103E1
1.005846275E1,2.954555969E0,-9.105115814E0,-9.969268799E-1,9.624260915E0
1.006850275E1,2.708617401E0,-8.466843109E0,7.346722412E-1,8.919853349E0
1.007854175E1,3.829785919E0,-8.159083099E0,1.448238373E0,9.128816549E0
1.008858075E1,4.793332214E0,-8.048163757E0,1.807940369E0,9.540315611E0
1.009862075E1,5.352718964E0,-7.776628418E0,2.277513885E0,9.711571415E0
1.010865975E1,5.651048584E0,-7.328759766E0,3.010539551E0,9.731825018E0
1.011869975E1,5.675148468E0,-7.004384308E0,3.800746307E0,9.783372739E0
1.012873887E1,5.812712402E0,-7.013814697E0,4.216731262E0,1.003802992E1
1.013877787E1,5.662424927E0,-7.176676025E0,4.468058624E0,1.017503232E1
1.014881788E1,5.578000488E0,-6.939868469E0,4.253404999E0,9.867487923E0
1.015885688E1,5.478906555E0,-6.709048462E0,3.956721954E0,9.522888056E0
1.016889688E1,5.008285217E0,-6.390061798E0,3.827390900E0,8.975785854E0
1.017893587E1,4.622687073E0,-6.235882416E0,3.670966187E0,8.586702395E0
1.018897487E1,4.298760681E0,-5.936504974E0,3.350632324E0,8.059042851E0
1.019901487E1,4.081412659E0,-5.665269012E0,2.960393829E0,7.584005136E0
1.020905387E1,4.153562622E0,-5.543721771E0,2.577340393E0,7.391049792E0
1.021909387E1,4.082759857E0,-5.639821930E0,2.223476257E0,7.308923732E0
1.022913287E1,4.092938690E0,-5.863905945E0,1.920955353E0,7.404566802E0
1.023917188E1,4.199367371E0,-6.217620392E0,1.929337921E0,7.746988735E0
1.024921188E1,4.194727020E0,-6.619684296E0,2.020648041E0,8.093143608E0
1.025925088E1,4.034410400E0,-7.111561432E0,1.944157104E0,8.404196578E0
1.026929087E1,3.686683502E0,-7.592062225E0,2.086211700E0,8.693866996E0
1.027932987E1,3.378025360E0,-8.043972473E0,2.186802521E0,8.994367890E0
1.028936887E1,3.147953796E0,-8.389903107E0,2.078577576E0,9.198944069E0
1.029940887E1,2.844085693E0,-8.720266113E0,1.599723358E0,9.310799071E0
1.030944787E1,2.513123932E0,-9.298513641E0,6.448590088E-1,9.653703485E0
1.031948788E1,2.618654480E0,-9.744735718E0,-3.341052246E-1,1.009598196E1
1.032952688E1,2.878963165E0,-9.850116577E0,-5.423222351E-1,1.027654314E1
1.033956588E1,2.865341492E0,-9.773625641E0,8.666976929E-2,1.018535476E1
1.034960588E1,2.382295990E0,-9.768835602E0,1.631756744E0,1.018666350E1
1.035964487E1,2.399959259E0,-9.669142914E0,3.635340271E0,1.060508501E1
1.036968487E1,2.863844604E0,-9.532477112E0,5.323379974E0,1.128751966E1
1.037972387E1,3.593427429E0,-9.570947113E0,6.416107635E0,1.206988759E1
1.038976287E1,4.431384888E0,-9.787397003E0,6.590045929E0,1.260392865E1
1.039980287E1,5.330864410E0,-9.946815491E0,6.225853271E0,1.288869670E1
1.040984187E1,6.258335724E0,-1.015682877E1,5.804928589E0,1.326744635E1
1.041988088E1,6.858737183E0,-1.052281769E1,5.425317993E0,1.368232594E1
1.042992088E1,7.249873810E0,-1.112905701E1,5.103936310E0,1.422908100E1
1.043995988E1,7.582182770E0,-1.180145874E1,4.984185333E0,1.488643770E1
1.044999987E1,7.380252686E0,-1.220277420E1,4.856201477E0,1.506514257E1
1.046003887E1,7.018005981E0,-1.169532944E1,4.735702057E0,1.443814436E1
1.047007787E1,7.009324036E0,-1.021311172E1,4.026776276E0,1.302509891E1
1.048011787E1,6.859335938E0,-9.098080444E0,3.163521423E0,1.182511840E1
1.049015687E1,6.492149506E0,-8.630153503E0,2.607577515E0,1.110977116E1
1.050019688E1,6.433321838E0,-8.388555908E0,2.519261169E0,1.086748255E1
1.051023588E1,6.192023621E0,-8.480614471E0,2.465522919E0,1.078613840E1
1.052027488E1,5.504054260E0,-8.931177521E0,2.508782959E0,1.078677603E1
1.053031488E1,5.265899506E0,-9.683213654E0,2.495610352E0,1.130143333E1
1.054035387E1,5.745202789E0,-1.070049820E1,2.429597626E0,1.238591787E1
1.055039387E1,6.308032379E0,-1.188797882E1,2.448159027E0,1.367877171E1
1.056043287E1,6.682104492E0,-1.307560913E1,2.518961792E0,1.489856514E1
1.057047187E1,6.754553833E0,-1.396490982E1,2.291884003E0,1.568105341E1
1.058051187E1,6.358178101E0,-1.465018478E1,2.197879486E0,1.612094964E1
1.059055088E1,5.921985168E0,-1.463820969E1,1.929337921E0,1.590815627E1
1.060059088E1,5.431155853E0,-1.402538406E1,1.392105103E0,1.510452941E1
1.061062988E1,4.844675446E0,-1.306617874E1,1.120569763E0,1.398039998E1
1.062066888E1,4.366719360E0,-1.183843185E1,8.418493652E-1,1.264616215E1
1.063070887E1,4.001029816E0,-1.074001602E1,7.688012695E-1,1.148682894E1
1.064074787E1,3.832330627E0,-9.864486694E0,7.559280396E-1,1.060972587E1
1.065078787E1,3.886218567E0,-9.148226166E0,4.354444885E-1,9.948987317E0
1.066082687E1,4.049079895E0,-8.551716614E0,-1.285826111E-1,9.462739483E0
1.067086587E1,4.131708069E0,-8.005352783E0,-8.487350464E-1,9.048593036E0
1.068090588E1,4.288132782E0,-7.393125916E0,-1.694626007E0,8.713102253E0
1.069094488E1,4.420158234E0,-6.825655975E0,-2.587369537E0,8.533572489E0
1.070098488E1,4.411476288E0,-6.202052765E0,-3.368594971E0,8.323101202E0
1.071102387E1,4.227209473E0,-5.590274963E0,-3.811823273E0,7.978124514E0
1.072106287E1,3.886967010E0,-5.169200592E0,-4.017495575E0,7.613765034E0
1.073110287E1,3.501368866E0,-4.924160156E0,-3.960613861E0,7.224499937E0
1.074114187E1,3.151995392E0,-4.929399261E0,-3.614084473E0,6.877183915E0
1.075118187E1,3.086132355E0,-5.275479584E0,-2.951711884E0,6.787304383E0
1.076122087E1,3.237467651E0,-6.030359802E0,-2.007625122E0,7.132811141E0
1.077125988E1,3.276386719E0,-6.995103607E0,-9.803114319E-1,7.786346699E0
1.078129988E1,3.217559052E0,-7.966882782E0,-3.293151855E-2,8.592147112E0
1.079133888E1,3.155438232E0,-8.752299500E0,9.367520142E-1,9.350777577E0
1.080137788E1,2.989732819E0,-9.274862823E0,2.324366455E0,1.001819655E1
1.081141787E1,2.984793091E0,-9.818981323E0,3.110681305E0,1.072369909E1
1.082145687E1,2.950963440E0,-1.021011795E1,3.233575745E0,1.110903713E1
1.083149687E1,2.869233398E0,-1.020547760E1,3.516337738E0,1.116910491E1
1.084153587E1,2.769989777E0,-9.884844360E0,3.573668518E0,1.086987112E1
1.085157487E1,2.815944214E0,-9.342073059E0,3.492088165E0,1.036332720E1
1.086161488E1,2.975213013E0,-8.738977203E0,3.394940186E0,9.836017176E0
1.087165388E1,3.383264465E0,-8.098908234E0,3.365301819E0,9.400215389E0
1.088169388E1,4.112996979E0,-7.508386230E0,3.414848785E0,9.217038579E0
1.089173287E1,5.209766235E0,-7.007078705E0,3.797902222E0,9.521810620E0
1.090177187E1,6.889872437E0,-6.714736633E0,4.445305939E0,1.059805525E1
1.091181187E1,8.890162811E0,-6.689139862E0,5.409450989E0,1.237100428E1
1.092185087E1,1.052027298E1,-6.792574768E0,6.365512848E0,1.404759657E1
1.093189087E1,1.075752960E1,-6.742578735E0,8.424181824E0,1.523658920E1
1.094192987E1,1.018841309E1,-7.420968018E0,8.483308868E0,1.519345441E1
1.095196888E1,9.871971130E0,-8.624764709E0,6.368207245E0,1.457382736E1
1.096200888E1,9.714199219E0,-9.433532867E0,5.601351929E0,1.465374874E1
1.097204788E1,9.685608673E0,-9.931996307E0,5.561684418E0,1.494616672E1
1.098208787E1,8.937464447E0,-1.008916946E1,5.696853333E0,1.463296788E1
1.099212687E1,8.283923492E0,-1.006746460E1,5.695655823E0,1.422735840E1
1.100216587E1,7.954308929E0,-9.962682495E0,6.009702759E0,1.409406259E1
1.101220587E1,7.551795959E0,-9.714049530E0,6.385870514E0,1.386260159E1
1.102224487E1,7.393724670E0,-9.146130524E0,6.235433350E0,1.331163014E1
1.103228488E1,7.225474548E0,-8.663683777E0,5.276228027E0,1.245413511E1
1.104232388E1,6.386918335E0,-8.319549408E0,3.984414368E0,1.121976765E1
1.105236288E1,5.360502777E0,-7.996670837E0,3.250640259E0,1.016112182E1
1.106240288E1,5.169649658E0,-7.727979584E0,2.845283203E0,9.723301011E0
1.107244187E1,5.971981201E0,-8.043224030E0,2.828967133E0,1.040966221E1
1.108248087E1,7.335196381E0,-9.303603058E0,4.343966675E0,1.261872348E1
1.109252087E1,9.033115540E0,-1.156420212E1,6.469097443E0,1.603674433E1
1.110255987E1,1.006686584E1,-1.389859772E1,6.218069458E0,1.825314204E1
1.111259987E1,9.196725311E0,-1.501437744E1,3.937412109E0,1.804202041E1
1.112263888E1,7.274123383E0,-1.492830643E1,1.168170776E0,1.664727686E1
1.113267750E1,5.423372040E0,-1.436308182E1,-2.260299683E-1,1.535454894E1
1.114271750E1,4.280498657E0,-1.342528198E1,-3.065625000E-1,1.409449700E1
1.115275650E1,3.509002991E0,-1.291888504E1,6.182144165E-2,1.338710255E1
1.116279650E1,2.757415924E0,-1.328008392E1,6.858737183E-1,1.358066252E1
1.117283550E1,1.994452515E0,-1.438927734E1,8.655001831E-1,1.455260231E1
1.118287450E1,9.705816650E-1,-1.557256668E1,-6.129753113E-1,1.561481990E1
1.119291450E1,2.604583740E-1,-1.577629303E1,-4.511767731E0,1.641082900E1
1.120295350E1,1.518442383E0,-1.486079681E1,-1.870974289E1,2.394166720E1
1.121299350E1,4.604275360E0,-1.261456787E1,-1.968301895E1,2.382746124E1
1.122303250E1,4.519252167E0,-1.057460999E1,-9.606573029E0,1.498440062E1
1.123307150E1,2.341131592E0,-9.663005676E0,-2.856809235E0,1.034485064E1
1.124311150E1,5.225633240E-1,-8.945547638E0,4.927752686E-1,8.974336880E0
1.125315050E1,1.505120087E0,-8.086783447E0,1.189576263E0,8.311230034E0
1.126319050E1,3.198847961E0,-7.867639160E0,1.209634552E0,8.578787209E0
1.127322950E1,4.524790649E0,-7.835306396E0,1.663939819E0,9.199698499E0
1.128326850E1,5.640720062E0,-7.679929504E0,2.573298798E0,9.870202972E0
1.129330850E1,6.264023895E0,-7.387737122E0,3.310066681E0,1.023587791E1
1.130334750E1,6.762936401E0,-7.089407501E0,3.746858368E0,1.048980243E1
1.131338750E1,7.275470581E0,-6.882238312E0,4.054019623E0,1.080429320E1
1.132342650E1,7.429649963E0,-6.793323212E0,4.450245667E0,1.100698075E1
1.133346550E1,7.284302216E0,-6.830895081E0,4.699776764E0,1.103676076E1
1.134350550E1,6.888674927E0,-6.665039978E0,4.705614624E0,1.067798713E1
1.135354450E1,6.389762421E0,-6.432124329E0,4.567751312E0,1.015212486E1
1.136358450E1,6.167025604E0,-6.159990234E0,4.507875824E0,9.813186482E0
1.137362350E1,6.136638794E0,-5.925727386E0,4.324656830E0,9.564268788E0
1.138366250E1,5.899681549E0,-5.812413025E0,4.047283630E0,9.217965737E0
1.139370250E1,5.085075531E0,-5.871390381E0,3.824247437E0,8.657718326E0
1.140374150E1,4.409081268E0,-5.989644470E0,3.492537231E0,8.216669327E0
1.141378050E1,4.083807678E0,-6.182144165E0,3.357068939E0,8.134267238E0
1.142382050E1,4.027524719E0,-6.477480011E0,3.364852753E0,8.336722180E0
1.143385950E1,3.920946350E0,-6.794520721E0,3.446433105E0,8.568385686E0
1.144389950E1,3.782334595E0,-7.092700653E0,3.446133728E0,8.745758698E0
1.145393850E1,3.561094666E0,-7.314988403E0,3.138673096E0,8.720190328E0
1.146397750E1,3.315305786E0,-7.497309265E0,2.757415924E0,8.648944517E0
1.147401750E1,2.999462585E0,-7.712262268E0,2.292482758E0,8.586689833E0
1.148405650E1,2.708168335E0,-8.216563568E0,5.477110291E-1,8.668683866E0
1.149409650E1,2.827769623E0,-9.131461029E0,-2.472109222E0,9.873762483E0
1.150413550E1,3.255430298E0,-9.596094818E0,-2.757415924E0,1.050172389E1
1.151417450E1,3.545077972E0,-9.346563721E0,-7.282356262E-1,1.002278197E1
1.152421450E1,3.403622131E0,-8.979077911E0,1.765728149E0,9.763517791E0
1.153425350E1,3.110980682E0,-8.894503784E0,3.979324951E0,1.022865707E1
1.154429350E1,3.523822174E0,-9.061706085E0,5.484295349E0,1.116285516E1
1.155433250E1,4.390070801E0,-9.251810760E0,6.007756805E0,1.187273624E1
1.156437150E1,5.768404541E0,-9.324260101E0,5.745502167E0,1.237849395E1
1.157441150E1,7.176975403E0,-9.749226379E0,5.536087646E0,1.331182397E1
1.158445050E1,8.044421539E0,-1.042357407E1,5.270090790E0,1.418229428E1
1.159449050E1,8.284971313E0,-1.110390930E1,4.874762878E0,1.468675814E1
1.160452950E1,8.127798157E0,-1.154938293E1,4.881798248E0,1.494260028E1
1.161456850E1,7.826325073E0,-1.178604080E1,5.086572418E0,1.503447175E1
1.162460850E1,7.405250702E0,-1.173903854E1,4.848717041E0,1.470213661E1
1.163464750E1,6.683152313E0,-1.126677063E1,4.216880951E0,1.376178514E1
1.164468750E1,5.914500732E0,-1.043734543E1,3.571423187E0,1.251697096E1
1.165472650E1,5.276826782E0,-9.584868164E0,3.055595856E0,1.136007327E1
1.166476550E1,4.897365875E0,-8.810378723E0,2.655926971E0,1.042405458E1
1.167480550E1,4.705614624E0,-8.222251740E0,2.307451630E0,9.750516175E0
1.168484450E1,4.467310181E0,-7.799979858E0,1.929337921E0,9.193415625E0
1.169488350E1,4.069138184E0,-7.558082886E0,1.641336823E0,8.739364338E0
1.170492350E1,3.742218018E0,-7.567064209E0,1.535955963E0,8.580432224E0
1.171496250E1,3.863166504E0,-8.004005585E0,1.327439575E0,8.986114659E0
1.172500250E1,4.280798035E0,-8.949289856E0,1.300345917E0,1.000529461E1
1.173504150E1,4.991819458E0,-1.010219238E1,1.461860046E0,1.136263998E1
1.174508050E1,5.770350494E0,-1.129670837E1,1.701212311E0,1.279869869E1
1.175512050E1,6.309379578E0,-1.260379028E1,1.944306793E0,1.422828623E1
1.176515950E1,6.506369934E0,-1.383078873E1,2.106868744E0,1.542927291E1
1.177519950E1,6.522835693E0,-1.477472580E1,2.011966095E0,1.627537758E1
1.178523850E1,6.364614716E0,-1.535297333E1,1.618434448E0,1.669854606E1
1.179527750E1,6.121520233E0,-1.522274414E1,1.242715759E0,1.645446115E1
1.180531750E1,5.875581665E0,-1.418944290E1,1.091081085E0,1.539653233E1
1.181535650E1,5.628894653E0,-1.269629791E1,9.536668396E-1,1.392084466E1
1.182539650E1,5.460494843E0,-1.131362320E1,7.312294006E-1,1.258371051E1
1.183543550E1,5.496120758E0,-1.020487885E1,3.632945251E-1,1.159650286E1
1.184547450E1,5.460644531E0,-9.149573364E0,-1.722917175E-1,1.065659495E1
1.185551450E1,5.283413086E0,-8.098608856E0,-7.000941467E-1,9.694949771E0
1.186555350E1,5.044958954E0,-7.129075012E0,-1.195563812E0,8.815026614E0
1.187559350E1,4.826563110E0,-6.141728210E0,-1.796114960E0,8.015146026E0
1.188563250E1,4.623435516E0,-5.129682770E0,-2.258353729E0,7.265670159E0
1.189567150E1,4.393663330E0,-4.347858582E0,-2.551144867E0,6.687039093E0
1.190571150E1,4.227808228E0,-3.780987396E0,-2.585573273E0,6.233411365E0
1.191575050E1,3.986060944E0,-3.541186066E0,-2.526745605E0,5.900264736E0
1.192578950E1,3.574267273E0,-3.561693420E0,-2.255359955E0,5.526996932E0
1.193582950E1,3.153641968E0,-3.883374481E0,-1.852098541E0,5.334446928E0
1.194586850E1,2.869383087E0,-4.477339325E0,-1.328786774E0,5.481386779E0
1.195590850E1,2.785557404E0,-5.297034760E0,-6.345304871E-1,6.018349959E0
1.196594750E1,2.628533936E0,-6.145470428E0,1.454974365E-1,6.685593986E0
1.197598650E1,2.316283264E0,-6.888225861E0,1.117276611E0,7.352627469E0
1.198602650E1,2.246528320E0,-7.847880249E0,2.248174896E0,8.467018617E0
1.199606550E1,2.386936340E0,-8.922794952E0,3.072810059E0,9.734264046E0
1.200610550E1,2.545007629E0,-9.859696655E0,3.563938751E0,1.078852823E1
1.201614450E1,2.470013580E0,-1.051952454E1,3.945794678E0,1.150350639E1
1.202618350E1,2.259850616E0,-1.081710571E1,4.200115814E0,1.182191497E1
1.203622350E1,2.167043610E0,-1.038330780E1,4.037254486E0,1.134938689E1
1.204626250E1,2.396965485E0,-9.551337891E0,3.632795563E0,1.049622326E1
1.205630250E1,2.768642578E0,-8.676706696E0,3.365451508E0,9.709628451E0
1.206634150E1,3.243006134E0,-7.789351959E0,3.339555359E0,9.074344204E0
1.207638050E1,3.889960785E0,-7.035220184E0,3.436553650E0,8.742769523E0
1.208642050E1,4.867577820E0,-6.529122620E0,3.822900238E0,8.996517229E0
1.209645950E1,6.152805176E0,-6.287375336E0,4.600383453E0,9.927317264E0
1.210649850E1,7.551197205E0,-6.236032104E0,5.650749207E0,1.130661940E1
1.211653850E1,8.932375031E0,-6.351591797E0,6.395749969E0,1.268998265E1
1.212657750E1,1.018856277E1,-6.927294617E0,6.342011719E0,1.385695980E1
1.213661750E1,1.074824890E1,-7.908803558E0,6.059249725E0,1.465566564E1
1.214665650E1,1.085916824E1,-9.139095154E0,5.870492249E0,1.535927324E1
1.215669550E1,1.088701035E1,-1.038974442E1,5.912854156E0,1.616897113E1
1.216673550E1,1.105361389E1,-1.089419540E1,5.924978943E0,1.661238240E1
1.217677450E1,1.056353302E1,-1.038375687E1,5.618416443E0,1.584226120E1
1.218681450E1,9.167086945E0,-1.014799713E1,5.303171997E0,1.466768428E1
1.219685350E1,7.903863831E0,-9.821376343E0,5.001848602E0,1.356277944E1
1.220689250E1,7.451504517E0,-8.765621796E0,4.648283844E0,1.240836765E1
1.221693250E1,7.461833038E0,-7.905660095E0,3.984114990E0,1.157806487E1
1.222697150E1,7.359595642E0,-7.703730011E0,3.036585388E0,1.107844551E1
1.223701150E1,6.905440063E0,-7.687713318E0,2.478695526E0,1.062685137E1
1.224705050E1,6.353388062E0,-7.753426666E0,2.405497742E0,1.030861699E1
1.225708950E1,6.372548218E0,-7.936495972E0,2.377955017E0,1.045236859E1
1.226712950E1,7.105873260E0,-8.492739258E0,3.335214386E0,1.156476156E1
1.227716850E1,8.460256805E0,-9.760453033E0,5.828579407E0,1.417091128E1
1.228720850E1,9.518406372E0,-1.153052216E1,6.073619843E0,1.613821115E1
1.229724750E1,9.522148590E0,-1.283999908E1,4.123924255E0,1.650889583E1
1.230728650E1,8.557853851E0,-1.354233856E1,1.916165314E0,1.613392345E1
1.231732650E1,7.124584351E0,-1.384141663E1,2.761756897E-1,1.556986800E1
1.232736550E1,5.780080261E0,-1.358020981E1,-2.318678284E-1,1.476093456E1
1.233740450E1,4.900958405E0,-1.311871948E1,2.171983337E-1,1.400597620E1
1.234744450E1,4.065845032E0,-1.332588867E1,9.527687073E-1,1.396489072E1
1.235748350E1,3.427722015E0,-1.438448730E1,1.753753052E0,1.489088322E1
1.236752350E1,2.702629852E0,-1.593436432E1,1.714534607E0,1.625262450E1
1.237756250E1,1.869462433E0,-1.703906708E1,1.083746338E-1,1.714165808E1
1.238760150E1,9.621990967E-1,-1.683623886E1,-5.476661224E0,1.773072430E1
1.239764150E1,1.156195679E0,-1.566612213E1,-2.253219406E1,2.746750699E1
1.240768050E1,3.290607147E0,-1.300301010E1,-1.939621536E1,2.358218687E1
1.241772050E1,3.275787964E0,-1.075977493E1,-9.441466370E0,1.468485038E1
1.242775950E1,2.375110931E0,-9.638905792E0,-3.370241547E0,1.048371045E1
1.243779850E1,1.232985992E0,-8.976832581E0,-2.149530029E-1,9.063662749E0
1.244783850E1,1.890119476E0,-8.058492279E0,6.890171814E-1,8.305816885E0
1.245787750E1,3.373235321E0,-7.577542419E0,7.813751221E-1,8.331171150E0
1.246791750E1,4.340523834E0,-7.288044434E0,1.551074524E0,8.623315546E0
1.247795650E1,5.387147369E0,-6.925049286E0,2.770289154E0,9.200661193E0
1.248799550E1,6.493197327E0,-6.521937561E0,3.541635132E0,9.861057777E0
1.249803550E1,7.440277863E0,-6.155200195E0,4.148323517E0,1.050965328E1
1.250807450E1,8.015830994E0,-5.826483765E0,4.581372986E0,1.091743734E1
1.251811350E1,8.067623291E0,-5.532944183E0,4.777165833E0,1.088675022E1
1.252815350E1,7.898325348E0,-5.354515228E0,4.727469177E0,1.064910050E1
1.253819250E1,7.420818329E0,-5.253475342E0,4.776417389E0,1.027042895E1
1.254823250E1,6.776857452E0,-5.116959229E0,4.756957855E0,9.733330196E0
1.255827150E1,6.092480621E0,-5.107678528E0,4.514013062E0,9.142374636E0
1.256831050E1,5.486390991E0,-5.352269897E0,4.193978577E0,8.737089645E0
1.257835050E1,4.627776489E0,-6.048921204E0,4.020788727E0,8.612346077E0
1.258838950E1,3.305276642E0,-6.952442322E0,4.235292664E0,8.786296823E0
1.259842950E1,2.958597565E0,-7.637417908E0,4.452940063E0,9.322667379E0
1.260846850E1,3.267555084E0,-8.171507263E0,4.569547577E0,9.916209570E0
1.261850750E1,3.602259064E0,-8.746910706E0,4.325255585E0,1.040156494E1
1.262854750E1,3.799249420E0,-9.276359711E0,4.036655731E0,1.080646728E1
1.263858650E1,3.717519379E0,-9.585317230E0,3.657494202E0,1.091217305E1
1.264862650E1,3.337010651E0,-9.536369019E0,2.841990051E0,1.049546957E1
1.265866550E1,3.070564728E0,-9.094487915E0,1.861977997E0,9.777782992E0
1.266870450E1,2.915786591E0,-8.729696503E0,-1.227447510E-2,9.203779829E0
1.267874450E1,3.145558777E0,-9.302854614E0,-4.222120056E0,1.068943131E1
1.268878350E1,3.659889221E0,-9.835596771E0,-4.780758362E0,1.153210317E1
1.269882250E1,3.698658600E0,-9.212891693E0,-2.002984772E0,1.012765505E1
1.270886250E1,3.563489685E0,-8.229885864E0,7.852670288E-1,9.002562101E0
1.271890150E1,3.577410736E0,-7.631130981E0,3.003803558E0,8.947338344E0
1.272894150E1,3.833228760E0,-7.497309265E0,4.357588348E0,9.481132061E0
1.273898050E1,4.539909210E0,-7.692054291E0,5.187013550E0,1.032877458E1
1.274901950E1,5.683980103E0,-7.934550018E0,5.483696594E0,1.119534020E1
1.275905950E1,6.915469208E0,-8.321345673E0,5.660628662E0,1.221111072E1
1.276909850E1,7.982600098E0,-8.971294098E0,5.755531311E0,1.331661229E1
1.277913850E1,8.897647247E0,-9.865384827E0,5.643564148E0,1.443411794E1
1.278917750E1,9.516610107E0,-1.087533463E1,5.213209076E0,1.536282266E1
1.279921650E1,9.528136139E0,-1.182091827E1,4.508773956E0,1.583819844E1
1.280925650E1,8.996741180E0,-1.252056335E1,4.025429077E0,1.593455170E1
1.281929550E1,8.606053619E0,-1.225127335E1,3.708987122E0,1.542447545E1
1.282933550E1,7.858059082E0,-1.118054993E1,3.070115662E0,1.400640566E1
1.283937450E1,6.697223053E0,-1.016191818E1,2.704575806E0,1.246724140E1
1.284941350E1,5.528603210E0,-9.033714294E0,2.485431519E0,1.087891618E1
1.285945350E1,4.549638977E0,-7.958949280E0,2.366428986E0,9.468055482E0
1.286949250E1,3.926185455E0,-7.229366455E0,2.323917389E0,8.548641038E0
1.287953150E1,3.543281708E0,-6.948999481E0,2.330503693E0,8.140926637E0
1.288957150E1,3.172652435E0,-7.036717072E0,2.526895294E0,8.121964691E0
1.289961050E1,2.876268768E0,-7.581883392E0,2.604583740E0,8.517143551E0
1.290965050E1,2.878813477E0,-8.529263306E0,2.589016113E0,9.366904718E0
1.291968950E1,3.300187225E0,-9.751920776E0,2.538121948E0,1.060345498E1
1.292972850E1,4.043691101E0,-1.128144012E1,2.489772491E0,1.224015098E1
1.293976850E1,4.777764587E0,-1.290406586E1,2.413580933E0,1.397022988E1
1.294980750E1,5.282814331E0,-1.450019669E1,2.293680267E0,1.560207680E1
1.295984650E1,5.624703369E0,-1.586371124E1,2.055675201E0,1.695642719E1
1.296988650E1,5.729186096E0,-1.673624680E1,1.574575653E0,1.775964016E1
1.297992550E1,5.682034149E0,-1.674912003E1,1.038091278E0,1.771711509E1
1.298996550E1,5.657934265E0,-1.573961929E1,7.933502197E-1,1.674446894E1
1.300000450E1,5.693560181E0,-1.422192535E1,9.199868774E-1,1.534686170E1
1.301004350E1,5.826932831E0,-1.264585281E1,1.293160858E0,1.398366921E1
1.302008350E1,5.909860382E0,-1.135972733E1,1.512454834E0,1.289408292E1
1.303012250E1,5.976172485E0,-1.022314087E1,1.284778290E0,1.191125107E1
1.304016250E1,6.056705017E0,-9.112600250E0,5.207670593E-1,1.095419359E1
1.305020150E1,6.187982025E0,-8.018375702E0,-6.786886597E-1,1.015116194E1
1.306024050E1,6.278843079E0,-6.938820648E0,-2.175276489E0,9.607441397E0
1.307028050E1,6.233637085E0,-5.868546295E0,-3.658841400E0,9.310488028E0
1.308031950E1,5.984704742E0,-4.852309570E0,-5.057981873E0,9.216549226E0
1.309035850E1,5.378016357E0,-3.860771484E0,-5.755531311E0,8.772386053E0
1.310039850E1,4.741988983E0,-3.195105743E0,-5.417534180E0,7.876854500E0
1.311043750E1,4.216731262E0,-3.034340057E0,-4.583318939E0,6.927831885E0
1.312047750E1,3.689527588E0,-3.393592987E0,-3.689377899E0,6.224194443E0
1.313051638E1,3.257675629E0,-4.185895386E0,-2.723137207E0,5.962352466E0
1.314055538E1,3.081042938E0,-5.365741882E0,-1.731150055E0,6.425020782E0
1.315059538E1,3.115920410E0,-6.528673553E0,-7.837701416E-1,7.276457518E0
1.316063438E1,3.036585388E0,-7.450456696E0,2.963836670E-2,8.045559907E0
1.317067437E1,2.799628143E0,-8.613388367E0,9.596543884E-1,9.107651368E0
1.318071337E1,2.615511017E0,-9.871671753E0,2.222129059E0,1.045125153E1
1.319075237E1,2.371817780E0,-1.090632019E1,4.229454803E0,1.193572904E1
1.320079237E1,2.686762848E0,-1.183079773E1,5.779780884E0,1.343846481E1
1.321083137E1,3.079995117E0,-1.233090775E1,5.827082520E0,1.398186491E1
1.322087138E1,2.963986359E0,-1.205742645E1,5.653593292E0,1.364294194E1
1.323091038E1,2.609822845E0,-1.125299927E1,5.244943085E0,1.268663059E1
1.324094938E1,2.650238800E0,-1.022673340E1,4.517455902E0,1.148987596E1
1.325098937E1,3.030298462E0,-9.066196747E0,3.989803162E0,1.035843432E1
1.326102837E1,3.627855835E0,-8.009843445E0,3.850592651E0,9.599270479E0
1.327106737E1,4.530927887E0,-7.143744507E0,4.203708344E0,9.446351514E0
1.328110737E1,5.754483490E0,-6.420448608E0,5.236710205E0,1.008758516E1
1.329114637E1,7.478298798E0,-5.714067535E0,7.034471741E0,1.174986440E1
1.330118637E1,9.557325439E0,-5.282964020E0,8.631500702E0,1.391958989E1
1.331122538E1,1.122770187E1,-5.352868652E0,9.192683716E0,1.546673612E1
1.332126438E1,1.208182571E1,-5.868097229E0,7.313491516E0,1.529353575E1
1.333130438E1,1.189157135E1,-6.744375000E0,5.390141144E0,1.469522660E1
1.334134337E1,1.204470291E1,-7.596403198E0,5.380112000E0,1.522254298E1
1.335138337E1,1.237746094E1,-8.467142487E0,5.706433411E0,1.604547984E1
1.336142237E1,1.150193161E1,-9.081315308E0,5.348677368E0,1.560041884E1
1.337146137E1,9.235943756E0,-9.217681732E0,4.624483337E0,1.384392140E1
1.338150137E1,7.521259460E0,-9.170829163E0,3.949237518E0,1.250079711E1
1.339154037E1,7.459737396E0,-8.693771210E0,3.129093018E0,1.187520791E1
1.340157938E1,7.857909393E0,-8.580157471E0,2.643203430E0,1.193115110E1
1.341161938E1,8.188871155E0,-8.703201599E0,2.443069611E0,1.219720943E1
1.342165838E1,8.097261658E0,-8.686137085E0,2.378404083E0,1.211079807E1
1.343169837E1,7.409591675E0,-8.512049103E0,2.260149994E0,1.150935735E1
1.344173737E1,6.764732666E0,-8.593030701E0,2.209106140E0,1.115714724E1
1.345177637E1,6.871460724E0,-9.015003204E0,3.019820251E0,1.173058266E1
1.346181637E1,7.820038147E0,-9.988878021E0,5.298381958E0,1.374785555E1
1.347185537E1,9.059909821E0,-1.143442200E1,6.347849579E0,1.590984496E1
1.348189437E1,9.756112061E0,-1.261591507E1,4.835245056E0,1.666501216E1
1.349193438E1,9.380692749E0,-1.322454941E1,2.034718781E0,1.634093584E1
1.350197338E1,8.108338623E0,-1.347213455E1,1.901046753E-1,1.572512971E1
1.351201338E1,6.620881805E0,-1.316407516E1,-3.004252625E-1,1.473835833E1
1.352205237E1,5.400319977E0,-1.265917511E1,9.131011963E-2,1.376323028E1
1.353209137E1,4.359234924E0,-1.279928375E1,8.104147339E-1,1.354552936E1
1.354213137E1,3.589984589E0,-1.361793137E1,1.088835754E0,1.412521176E1
1.355217037E1,2.873424683E0,-1.466904556E1,3.284170532E-1,1.495143220E1
1.356221037E1,1.866019592E0,-1.553948547E1,-2.690205688E0,1.588064371E1
1.357224937E1,-9.704319763E-1,-1.687246353E1,-1.863894012E1,2.516012426E1
1.358228838E1,-1.003363495E0,-1.552601349E1,-2.167028641E1,2.667705280E1
1.359232838E1,6.310876465E-1,-1.291095154E1,-1.132724487E1,1.718712942E1
1.360236738E1,1.283431091E0,-1.117710709E1,-4.576732635E0,1.214583879E1
1.361240637E1,1.804048462E0,-9.600735168E0,-3.423381042E-1,9.774758412E0
1.362244637E1,1.815574493E0,-8.501570892E0,9.111552429E-1,8.740893676E0
1.363248537E1,2.675386505E0,-8.155640259E0,1.260079651E0,8.675249951E0
1.364252537E1,3.660637665E0,-7.821535034E0,1.726360016E0,8.806645065E0
1.365256437E1,4.629572754E0,-7.337591400E0,2.787952423E0,9.112950683E0
1.366260337E1,5.716163177E0,-6.819967804E0,3.577410736E0,9.590847194E0
1.367264338E1,6.753955078E0,-6.369105377E0,3.879033508E0,1.006122823E1
1.368268238E1,7.525899811E0,-6.030659180E0,4.006568298E0,1.044320868E1
1.369272238E1,7.948321381E0,-6.000571747E0,4.083059235E0,1.076355177E1
1.370276137E1,8.314609680E0,-6.146069183E0,4.060456238E0,1.110829444E1
1.371280037E1,8.662037201E0,-6.221362610E0,4.245471497E0,1.147868762E1
1.372284037E1,8.659193115E0,-6.167774048E0,4.438569946E0,1.152058876E1
1.373287937E1,8.352480927E0,-6.108048248E0,4.452191620E0,1.126473263E1
1.374291837E1,8.107739868E0,-5.999523926E0,4.328249359E0,1.097558543E1
1.375295838E1,7.524402924E0,-5.868097229E0,4.056115265E0,1.036837863E1
1.376299738E1,6.541846161E0,-6.021378479E0,4.070784760E0,9.778754447E0
1.377303738E1,6.050717468E0,-6.315816193E0,4.025578766E0,9.628395529E0
1.378307638E1,5.697751465E0,-6.624174957E0,4.028123474E0,9.621322380E0
1.379311537E1,5.371729431E0,-7.006030884E0,3.821103973E0,9.619811921E0
1.380315537E1,5.024601288E0,-7.519313507E0,3.591481476E0,9.730644013E0
1.381319437E1,4.458179169E0,-8.042774963E0,3.307821350E0,9.772577587E0
1.382323337E1,3.798500977E0,-8.487799530E0,2.969973907E0,9.761767030E0
1.383327337E1,3.486549683E0,-8.668473816E0,2.610720978E0,9.701254095E0
1.384331238E1,3.337310028E0,-8.784033508E0,2.101779327E0,9.628829588E0
1.385335238E1,3.256777496E0,-8.734785919E0,1.595083008E0,9.457662212E0
1.386339138E1,2.955454102E0,-8.744066620E0,9.919871521E-1,9.283180948E0
1.387343038E1,2.463427277E0,-9.101523285E0,-8.241860962E-1,9.464960791E0
1.388347037E1,2.402503967E0,-1.003408401E1,-5.077142029E0,1.149922774E1
1.389350937E1,2.961441650E0,-1.024858795E1,-4.537514191E0,1.159278770E1
1.390354937E1,3.041225739E0,-9.303603058E0,-9.704319763E-1,9.836047076E0
1.391358837E1,2.614762573E0,-8.400381317E0,2.248324585E0,9.080658182E0
1.392362737E1,2.465522919E0,-7.859106903E0,4.336182861E0,9.308428782E0
1.393366738E1,2.994073792E0,-7.622299347E0,5.059778137E0,9.626280694E0
1.394370638E1,3.953877869E0,-7.674241333E0,5.099745026E0,1.002669086E1
1.395374538E1,5.168302460E0,-7.991282043E0,5.021008759E0,1.076022620E1
1.396378538E1,6.612499237E0,-8.529263306E0,4.731510773E0,1.178391586E1
1.397382437E1,8.062982941E0,-9.263037415E0,4.399052124E0,1.304481566E1
1.398386437E1,9.215586090E0,-1.019425095E1,4.281247101E0,1.439370891E1
1.399390337E1,9.848020935E0,-1.113294891E1,4.309388580E0,1.547568731E1
1.400394237E1,9.404642944E0,-1.168844376E1,4.350103912E0,1.562019303E1
1.401398237E1,8.426277466E0,-1.166539169E1,4.222868500E0,1.499720419E1
1.402402138E1,7.398215332E0,-1.085632416E1,3.851790161E0,1.369049494E1
1.403406038E1,6.403982849E0,-9.670639801E0,3.726500702E0,1.218273688E1
1.404410038E1,5.339246979E0,-8.476572876E0,3.659140778E0,1.066532500E1
1.405413938E1,4.562661896E0,-7.500003662E0,3.404370575E0,9.415820597E0
1.406417937E1,4.105063477E0,-7.022646332E0,3.103795624E0,8.706472014E0
1.407421837E1,3.718716888E0,-7.043902130E0,3.025209045E0,8.520405054E0
1.408425737E1,3.310366058E0,-7.389533386E0,3.021766205E0,8.642615235E0
1.409429737E1,3.130290527E0,-8.199499054E0,2.996169434E0,9.274024736E0
1.410433637E1,3.613785095E0,-9.358538818E0,2.884950714E0,1.043861256E1
1.411437638E1,4.622537384E0,-1.070708450E1,2.735261993E0,1.197877993E1
1.412441538E1,5.800886993E0,-1.212224167E1,2.447111206E0,1.365969935E1
1.413445438E1,6.817423096E0,-1.356060059E1,2.089205475E0,1.532096359E1
1.414449437E1,7.765701141E0,-1.493564117E1,1.694027252E0,1.691890126E1
1.415453337E1,8.530011749E0,-1.591595261E1,1.289867706E0,1.810365727E1
1.416457237E1,8.808881836E0,-1.629301849E1,9.660910034E-1,1.854702625E1
1.417461237E1,8.719517670E0,-1.565055450E1,1.125509491E0,1.795095029E1
1.418465137E1,8.713081055E0,-1.439780960E1,1.725012817E0,1.691716205E1
1.419469137E1,8.864865417E0,-1.322454941E1,2.254312134E0,1.607969120E1
1.420473038E1,8.908873901E0,-1.221325241E1,2.197879486E0,1.527619857E1
1.421476938E1,8.796906738E0,-1.121527771E1,1.749262390E0,1.436063861E1
1.422480938E1,8.593030701E0,-1.022538620E1,6.789880371E-1,1.337384478E1
1.423484837E1,8.179141388E0,-9.173074493E0,-1.112187195E0,1.234020299E1
1.424488837E1,7.774981842E0,-8.120014343E0,-3.226540375E0,1.169596248E1
1.425492737E1,7.274273071E0,-7.063661041E0,-6.306984558E0,1.194103891E1
1.426496637E1,6.519841919E0,-5.934259644E0,-8.104147339E0,1.197501483E1
1.427500637E1,5.492079163E0,-5.006638641E0,-7.652686157E0,1.066737875E1
1.428504537E1,4.661157074E0,-4.527185669E0,-6.054160309E0,8.881140264E0
1.429508438E1,3.905378723E0,-4.329746246E0,-4.789589996E0,7.545784112E0
1.430512438E1,3.022364960E0,-4.456831970E0,-4.072131958E0,6.751318378E0
1.431516338E1,2.349963226E0,-4.844376068E0,-3.340902557E0,6.336555575E0
1.432520337E1,1.863624573E0,-5.555547180E0,-2.451003113E0,6.351741279E0
1.433524237E1,1.528321838E0,-6.644682312E0,-1.495989075E0,6.980369187E0
1.434528137E1,1.594035187E0,-7.971822510E0,-6.491999817E-1,8.155511199E0
1.435532137E1,1.945953369E0,-9.175619202E0,9.857002258E-1,9.431348111E0
1.436536037E1,2.630180511E0,-1.038899597E1,3.335513763E0,1.122384688E1
1.437539937E1,3.815116425E0,-1.138442596E1,4.864883423E0,1.295481990E1
1.438543938E1,4.749024353E0,-1.186896835E1,6.164480896E0,1.419247923E1
1.439547838E1,5.153183899E0,-1.206371338E1,7.450157318E0,1.508619663E1
1.440551838E1,5.164859619E0,-1.175715088E1,7.930059357E0,1.509278679E1
1.441555737E1,4.570296021E0,-1.090646988E1,7.289391632E0,1.389150536E1
1.442559637E1,4.086502075E0,-9.983339539E0,6.186634827E0,1.243547418E1
1.443563637E1,3.719016266E0,-9.075477448E0,5.258864136E0,1.112883754E1
1.444567537E1,3.573668518E0,-8.079598389E0,4.765939178E0,1.003818674E1
1.445571437E1,4.402944031E0,-7.008874969E0,4.644841003E0,9.491300881E0
1.446575437E1,5.434449005E0,-5.984555054E0,4.977149963E0,9.493163695E0
1.447579338E1,6.449937286E0,-5.149291992E0,5.535039825E0,9.937482825E0
1.448583338E1,7.808512115E0,-4.535119171E0,6.347250824E0,1.103756134E1
1.449587238E1,9.178163910E0,-4.148922272E0,7.293732605E0,1.243586684E1
1.450591137E1,9.884095917E0,-4.028722229E0,7.231462097E0,1.289263352E1
1.451595137E1,9.927655334E0,-4.237687683E0,6.010451202E0,1.235483148E1
1.452599037E1,9.780810699E0,-4.935386810E0,4.811893616E0,1.196564336E1
1.453603037E1,1.002510269E1,-6.047723694E0,4.080215149E0,1.239862095E1
1.454606937E1,1.046997757E1,-7.393724670E0,3.899989929E0,1.339766831E1
1.455610837E1,1.012704071E1,-8.733289032E0,4.145479431E0,1.400043894E1
1.456614838E1,8.799750824E0,-9.689949646E0,4.119433594E0,1.372226191E1
1.457618738E1,7.126679993E0,-1.038181091E1,3.698059845E0,1.312429854E1
1.458622638E1,6.232140198E0,-1.079614929E1,3.468587036E0,1.293937815E1
1.459626637E1,6.350993042E0,-1.088985443E1,3.598067780E0,1.310992501E1
1.460630537E1,7.184908905E0,-1.092353439E1,3.739972687E0,1.359904097E1
1.461634537E1,7.935597839E0,-1.078342575E1,3.773802338E0,1.391034033E1
1.462638437E1,8.043822784E0,-1.019799316E1,3.671115875E0,1.349737905E1
1.463642337E1,7.364834747E0,-9.505383453E0,3.230432281E0,1.245105611E1
1.464646338E1,7.010371857E0,-8.928932190E0,2.726130981E0,1.167488474E1
1.465650238E1,7.188052368E0,-8.602461090E0,2.737956390E0,1.153979371E1
1.466654138E1,7.821235657E0,-8.657546539E0,4.463268585E0,1.249182155E1
1.467658138E1,8.766519928E0,-9.370663605E0,5.943091278E0,1.414148302E1
1.468662037E1,9.673334198E0,-1.062505508E1,5.641318817E0,1.543663396E1
1.469666037E1,9.942175140E0,-1.148905838E1,3.302881622E0,1.554845124E1
1.470669937E1,8.825646973E0,-1.158096725E1,9.147477722E-1,1.458929781E1
1.471673837E1,6.893914032E0,-1.143352386E1,-5.999523926E-1,1.336455991E1
1.472677837E1,5.321583710E0,-1.095511871E1,-8.948391724E-1,1.221206847E1
1.473681738E1,4.298311615E0,-1.086395828E1,-5.381309509E-1,1.169575381E1
1.474685738E1,3.537593536E0,-1.135882919E1,-2.429447937E-1,1.189943658E1
1.475689638E1,3.125949554E0,-1.241503281E1,3.977229309E-1,1.280869953E1
1.476693538E1,2.587519226E0,-1.354593109E1,-6.848258972E-1,1.380784166E1
1.477697537E1,1.466949463E-1,-1.563543594E1,-1.500120483E1,2.166851456E1
1.478701437E1,-2.728825378E-1,-1.550370987E1,-2.162732574E1,2.661166480E1
1.479705337E1,7.415579224E-1,-1.306034088E1,-1.248778152E1,1.808499653E1
1.480709337E1,1.162781982E0,-1.144729523E1,-5.380261688E0,1.270196228E1
1.481713237E1,2.395618286E0,-1.010683273E1,-4.863386536E-1,1.039824890E1
1.482717238E1,2.801873474E0,-8.743767242E0,1.226848755E0,9.263321133E0
1.483721138E1,3.638633423E0,-8.079897766E0,1.648222504E0,9.013381081E0
1.484725038E1,4.908742218E0,-7.824977875E0,2.162103882E0,9.486871038E0
1.485729038E1,5.992039490E0,-7.518565063E0,2.822979584E0,1.002010836E1
1.486732937E1,6.985972595E0,-7.298522644E0,3.473826141E0,1.068361895E1
1.487736837E1,7.485034790E0,-7.150031433E0,3.821852417E0,1.103427620E1
1.488740837E1,7.826624451E0,-7.006479950E0,3.860472107E0,1.119151717E1
1.489744737E1,8.294102325E0,-6.859635315E0,4.180805969E0,1.154668215E1
1.490748737E1,8.838071136E0,-6.606362000E0,4.550686798E0,1.193583975E1
1.491752638E1,9.123826904E0,-6.288273468E0,4.775219879E0,1.206604017E1
1.492756538E1,9.140142975E0,-6.086343384E0,5.028792572E0,1.207785346E1
1.493760538E1,9.020990753E0,-5.931116180E0,5.141208801E0,1.195777744E1
1.494764438E1,8.621770935E0,-5.768703918E0,4.997208252E0,1.151455467E1
1.495768437E1,7.414980469E0,-5.606291656E0,4.328997803E0,1.025439727E1
1.496772337E1,5.576802979E0,-5.891897736E0,3.762276306E0,8.942589859E0
1.497776237E1,4.704566803E0,-6.144272919E0,3.094215546E0,8.334219120E0
1.498780237E1,4.550986176E0,-6.311774597E0,2.645598450E0,8.218829898E0
1.499784137E1,4.412075043E0,-6.655459900E0,2.630180511E0,8.407104269E0
1.500788038E1,4.176464996E0,-7.051236877E0,2.576442261E0,8.590742464E0
1.501792038E1,3.790866852E0,-7.439978485E0,2.566113739E0,8.735496040E0
1.502795938E1,3.430865479E0,-7.655679932E0,2.310894470E0,8.701753065E0
1.503799937E1,2.996319122E0,-7.803422699E0,1.844763794E0,8.560051843E0
1.504803837E1,2.621199188E0,-7.951015778E0,1.185085602E0,8.455398569E0
1.505807737E1,2.469265137E0,-8.098608856E0,2.586621094E-1,8.470634085E0
1.506811737E1,2.747686157E0,-7.944878540E0,7.409591675E-2,8.406923601E0
1.507815637E1,3.191064148E0,-7.567064209E0,9.553134155E-1,8.267767223E0
1.508819537E1,3.151696014E0,-7.384893036E0,2.013912048E0,8.278023596E0
1.509823538E1,3.167862396E0,-7.497009888E0,2.890638885E0,8.636915108E0
1.510827438E1,3.566782837E0,-7.740703125E0,3.660787354E0,9.275871319E0
1.511831438E1,4.531077576E0,-7.981552277E0,4.224964142E0,1.010376973E1
1.512835375E1,6.132297821E0,-8.494086456E0,4.619842987E0,1.144978299E1
1.513839275E1,7.795189819E0,-9.360634460E0,4.750670929E0,1.307498895E1
1.514843275E1,9.438921661E0,-1.040621017E1,4.542603607E0,1.476542244E1
1.515847175E1,1.083656525E1,-1.139864639E1,4.136049042E0,1.626244716E1
1.516851175E1,1.091485245E1,-1.208257416E1,3.517535248E0,1.665820088E1
1.517855075E1,9.471703491E0,-1.206521027E1,2.967429199E0,1.562331917E1
1.518858975E1,8.210576019E0,-1.084569626E1,2.480491791E0,1.382734701E1
1.519862975E1,7.162754974E0,-9.460776215E0,2.195484467E0,1.206778760E1
1.520866875E1,6.142776031E0,-8.295599213E0,2.237996063E0,1.056216313E1
1.521870775E1,5.182822266E0,-7.252268829E0,2.309397583E0,9.208168494E0
1.522874775E1,4.420756989E0,-6.526278534E0,2.446063385E0,8.253401113E0
1.523878675E1,3.717070312E0,-6.160289612E0,2.536625061E0,7.628908605E0
1.524882675E1,3.151396637E0,-6.178701324E0,2.543361053E0,7.387579865E0
1.525886575E1,2.603984985E0,-6.581663361E0,2.715353394E0,7.581040459E0
1.526890475E1,2.301763458E0,-7.349267120E0,2.951113129E0,8.247357815E0
1.527894475E1,2.468067627E0,-8.394094391E0,3.170556793E0,9.306159725E0
1.528898375E1,3.107238464E0,-9.702373810E0,3.354823608E0,1.072594191E1
1.529902275E1,4.229305115E0,-1.118144806E1,3.449726257E0,1.244236367E1
1.530906275E1,5.629194031E0,-1.273776169E1,3.460054779E0,1.434957760E1
1.531910175E1,7.052135010E0,-1.428374680E1,3.183280334E0,1.624473159E1
1.532914175E1,8.114176483E0,-1.559307404E1,2.632276154E0,1.777393304E1
1.533918075E1,8.659043427E0,-1.653626266E1,2.095492401E0,1.878345294E1
1.534921975E1,8.762927399E0,-1.705463470E1,1.545236664E0,1.923635147E1
1.535925975E1,8.483308868E0,-1.670451279E1,1.303339691E0,1.878046781E1
1.536929875E1,8.201744385E0,-1.570025116E1,1.383872223E0,1.776743087E1
1.537933875E1,8.036488037E0,-1.453043381E1,1.839075623E0,1.670631155E1
1.538937775E1,7.984995117E0,-1.346973953E1,2.011067963E0,1.578728680E1
1.539941675E1,8.128247223E0,-1.238763977E1,1.395997009E0,1.488189604E1
1.540945675E1,8.161927185E0,-1.123503662E1,4.279600525E-1,1.389338883E1
1.541949575E1,8.133336639E0,-9.902507629E0,-7.613168335E-1,1.283707231E1
1.542953475E1,7.925119629E0,-8.513096924E0,-2.361788635E0,1.186837756E1
1.543957475E1,7.513775024E0,-7.022945709E0,-4.278702393E0,1.113938399E1
1.544961375E1,6.944957886E0,-5.498964844E0,-6.851402435E0,1.119878430E1
1.545965375E1,5.944139099E0,-4.128414917E0,-8.515042877E0,1.117508633E1
1.546969275E1,4.932093658E0,-3.241060181E0,-7.710166626E0,9.709618342E0
1.547973175E1,4.262985077E0,-2.784060516E0,-6.030808868E0,7.892698546E0
1.548977175E1,3.691323853E0,-2.775677948E0,-5.020260315E0,6.821530143E0
1.549981075E1,3.143463135E0,-3.263663177E0,-4.202959900E0,6.180431193E0
1.550984975E1,2.756966858E0,-4.137545929E0,-3.337609406E0,5.988304360E0
1.551988975E1,2.695444794E0,-5.482349396E0,-2.239492950E0,6.506681659E0
1.552992875E1,2.944077759E0,-6.946754150E0,-9.250762939E-1,7.601365221E0
1.553996875E1,3.248843994E0,-8.097561035E0,5.721102905E-1,8.743728736E0
1.555000775E1,3.943848724E0,-9.141939240E0,2.726879425E0,1.032302607E1
1.556004675E1,5.054838409E0,-9.998458099E0,4.334236908E0,1.201275011E1
1.557008675E1,5.611231384E0,-1.072624466E1,5.612428894E0,1.334307312E1
1.558012575E1,5.655688934E0,-1.126332779E1,6.763984222E0,1.430387545E1
1.559016575E1,5.376968536E0,-1.128862518E1,7.094047852E0,1.437603437E1
1.560020475E1,4.680766296E0,-1.059960800E1,6.451583862E0,1.326213396E1
1.561024375E1,4.240531769E0,-9.750124512E0,5.568869476E0,1.200247245E1
1.562028375E1,4.017345886E0,-8.775351563E0,5.125042419E0,1.092757626E1
1.563032275E1,3.969744873E0,-7.746690674E0,5.189707947E0,1.013425672E1
1.564036275E1,4.796775055E0,-6.698570251E0,5.921685791E0,1.014624349E1
1.565040175E1,6.277346191E0,-5.809568939E0,8.130791931E0,1.180109927E1
1.566044075E1,7.978109436E0,-4.979994049E0,9.942923584E0,1.368620840E1
1.567048075E1,9.226812744E0,-4.572241974E0,9.714199219E0,1.415645212E1
1.568051975E1,9.575886841E0,-4.760999451E0,8.006849670E0,1.335942986E1
1.569055875E1,9.549391937E0,-5.503156128E0,6.432723083E0,1.276148659E1
1.570059875E1,9.650581512E0,-6.690936127E0,5.835614777E0,1.311322804E1
1.571063775E1,1.037806870E1,-7.759863281E0,6.086044006E0,1.431641434E1
1.572067775E1,1.119237534E1,-8.242609406E0,6.692732391E0,1.542733102E1
1.573071675E1,1.078836548E1,-8.480464783E0,6.580615540E0,1.521879146E1
1.574075575E1,9.262288971E0,-9.157357178E0,5.511987762E0,1.414316784E1
1.575079575E1,8.734037476E0,-9.532177734E0,4.800367584E0,1.379091556E1
1.576083475E1,9.165739746E0,-9.430090027E0,4.367767181E0,1.385693953E1
1.577087475E1,9.068142700E0,-9.484127655E0,3.903881836E0,1.369014912E1
1.578091375E1,8.511001282E0,-9.490863647E0,3.277733917E0,1.316271914E1
1.579095275E1,8.356672211E0,-9.488468628E0,2.923570404E0,1.297737536E1
1.580099275E1,8.629854126E0,-9.670939178E0,2.866239624E0,1.327466672E1
1.581103175E1,9.204359436E0,-1.012958542E1,4.346361694E0,1.436034795E1
1.582107075E1,1.009889923E1,-1.113220047E1,5.999673615E0,1.618362557E1
1.583111075E1,1.066202820E1,-1.221609650E1,5.504203949E0,1.712332094E1
1.584114975E1,9.981842651E0,-1.249990631E1,2.892584839E0,1.625582626E1
1.585118975E1,8.419541473E0,-1.240575211E1,5.188211060E-1,1.500201784E1
1.586122875E1,7.133116608E0,-1.227761856E1,-9.479786682E-1,1.423094985E1
1.587126775E1,5.968238983E0,-1.177092224E1,-1.198557587E0,1.325183109E1
1.588130775E1,5.176086273E0,-1.145537842E1,-6.334826660E-1,1.258645558E1
1.589134675E1,5.052892456E0,-1.198362991E1,3.203338623E-1,1.300929367E1
1.590138675E1,5.081632690E0,-1.335777237E1,2.930905151E-1,1.429471845E1
1.591142575E1,5.048401794E0,-1.435889053E1,-5.166356506E0,1.607343577E1
1.592146475E1,6.861581268E0,-1.465931580E1,-2.491104721E1,2.970752615E1
1.593150475E1,6.999743958E0,-1.252505402E1,-2.036754547E1,2.491405832E1
1.594154375E1,4.713099060E0,-1.048674271E1,-7.032525787E0,1.347744391E1
1.595158275E1,3.640279999E0,-9.475745087E0,-1.498982849E0,1.026101033E1
1.596162275E1,3.322490845E0,-8.411907349E0,2.064207458E-1,9.046642481E0
1.597166175E1,3.992198181E0,-7.957602081E0,8.747808838E-1,8.945743054E0
1.598170175E1,5.221591644E0,-7.806117096E0,1.425485687E0,9.499078527E0
1.599174075E1,5.952072601E0,-7.520660706E0,2.241139526E0,9.849376228E0
1.600177975E1,6.436914368E0,-7.445516968E0,3.213068390E0,1.035342446E1
1.601181975E1,6.910080414E0,-7.479047241E0,4.051025848E0,1.095883978E1
1.602185875E1,7.295678558E0,-7.506739655E0,4.599635010E0,1.143392794E1
1.603189875E1,7.297624512E0,-7.503596191E0,4.832101593E0,1.152859424E1
1.604193775E1,6.750961304E0,-7.451504517E0,4.896467743E0,1.118372900E1
1.605197675E1,6.151308289E0,-7.250322876E0,4.906047821E0,1.069930281E1
1.606201675E1,5.658682709E0,-6.884932709E0,4.745431824E0,1.009663863E1
1.607205575E1,5.372028809E0,-6.571634216E0,4.675527191E0,9.690491438E0
1.608209475E1,5.104684753E0,-6.274951172E0,4.643493805E0,9.327103160E0
1.609213475E1,4.903952179E0,-6.000871124E0,4.429588623E0,8.926391017E0
1.610217375E1,4.753215637E0,-5.888454895E0,3.814817047E0,8.474655689E0
1.611221375E1,4.168531494E0,-6.285130005E0,3.492088165E0,8.311088602E0
1.612225275E1,4.334236908E0,-6.367309113E0,3.275039520E0,8.369833855E0
1.613229100E1,4.522245941E0,-6.561754761E0,2.738255768E0,8.426468925E0
1.614233100E1,4.537214813E0,-6.837930450E0,2.534080353E0,8.588665457E0
1.615237000E1,4.543950806E0,-6.999444580E0,2.464475098E0,8.701341900E0
1.616241000E1,4.463268585E0,-6.987469482E0,2.301763458E0,8.604859746E0
1.617244900E1,4.438869324E0,-6.829996948E0,2.081870728E0,8.407532629E0
1.618248800E1,4.419409790E0,-6.657555542E0,1.948647766E0,8.225050565E0
1.619252800E1,4.405488739E0,-6.550228729E0,1.929337921E0,8.126264348E0
1.620256700E1,4.323908386E0,-6.464606781E0,2.064506836E0,8.046708212E0
1.621260600E1,4.124373322E0,-6.591093750E0,2.234403534E0,8.089841239E0
1.622264600E1,3.847598877E0,-7.001240845E0,2.671344910E0,8.423625948E0
1.623268500E1,3.864663391E0,-7.488028564E0,3.331621857E0,9.061230551E0
1.624272500E1,4.185146942E0,-7.899223480E0,4.151616669E0,9.856424680E0
1.625276400E1,4.784350891E0,-8.079748077E0,4.706662445E0,1.050357148E1
1.626280300E1,5.488336945E0,-8.251590729E0,5.211712189E0,1.119698781E1
1.627284300E1,6.609206085E0,-8.587941284E0,5.752537537E0,1.226890495E1
1.628288200E1,8.280181274E0,-9.091494141E0,5.983656921E0,1.367555548E1
1.629292200E1,1.005758514E1,-9.593101044E0,5.330565033E0,1.488615229E1
1.630296100E1,1.094628708E1,-9.973011017E0,3.996090088E0,1.533789052E1
1.631300000E1,1.042507095E1,-1.014964371E1,2.796185303E0,1.481607316E1
1.632304000E1,9.472901001E0,-9.822573853E0,2.349214783E0,1.384693542E1
1.633307900E1,8.665330353E0,-9.134305115E0,2.361489258E0,1.281015658E1
1.634311900E1,7.658673706E0,-8.486302643E0,2.443368988E0,1.168942546E1
1.635315800E1,6.798262939E0,-7.824079742E0,2.480192413E0,1.065757746E1
1.636319700E1,6.054309998E0,-7.346572723E0,2.471061401E0,9.835290782E0
1.637323700E1,5.483097839E0,-7.247778168E0,2.445015564E0,9.411309760E0
1.638327600E1,5.060376892E0,-7.564220123E0,2.446512451E0,9.423919754E0
1.639331500E1,4.901557159E0,-8.041577454E0,2.580783234E0,9.764869309E0
1.640335500E1,5.217999115E0,-8.652457123E0,2.969375153E0,1.053136828E1
1.641339400E1,6.138285370E0,-9.481433258E0,3.280727692E0,1.176177274E1
1.642343400E1,7.266339569E0,-1.060110489E1,3.347039795E0,1.328103125E1
1.643347300E1,8.431965637E0,-1.186777084E1,3.330424347E0,1.493431470E1
1.644351200E1,9.563762054E0,-1.324281143E1,3.309168549E0,1.666697920E1
1.645355200E1,1.033929932E1,-1.470033051E1,3.134332123E0,1.824348830E1
1.646359100E1,1.080034058E1,-1.584649704E1,2.794987793E0,1.937964865E1
1.647363100E1,1.085348007E1,-1.636801254E1,2.152972870E0,1.975715456E1
1.648367000E1,1.028136978E1,-1.596744553E1,1.653760986E0,1.906307443E1
1.649370900E1,9.582173767E0,-1.451277054E1,1.431173859E0,1.744955075E1
1.650374900E1,9.059610443E0,-1.274120453E1,1.403032379E0,1.569660263E1
1.651378800E1,8.678502960E0,-1.129431335E1,1.209933929E0,1.429481962E1
1.652382800E1,8.375383301E0,-1.003049149E1,6.649172974E-1,1.308433873E1
1.653386700E1,8.056696014E0,-8.808732147E0,-3.629951477E-1,1.194302634E1
1.654390600E1,7.557035065E0,-7.615413666E0,-1.895807648E0,1.089483322E1
1.655394600E1,7.070995789E0,-6.388564911E0,-4.346661072E0,1.047407302E1
1.656398500E1,6.614894257E0,-4.922812958E0,-9.310638428E0,1.243699728E1
1.657402400E1,5.610482941E0,-3.611390076E0,-1.119147720E1,1.302953641E1
1.658406400E1,4.676874390E0,-3.463048553E0,-7.362739105E0,9.384870083E0
1.659410300E1,4.345912628E0,-3.725003815E0,-4.303700409E0,7.161316024E0
1.660414300E1,3.789669342E0,-4.017345886E0,-3.276386719E0,6.421477371E0
1.661418200E1,2.881208496E0,-4.338877258E0,-2.909050598E0,5.965718200E0
1.662422100E1,1.956880646E0,-4.727768555E0,-2.528691559E0,5.707491425E0
1.663426100E1,1.142723694E0,-5.270240479E0,-1.827250214E0,5.693864723E0
1.664430000E1,4.833448792E-1,-6.049819336E0,-1.094074860E0,6.166922739E0
1.665434000E1,-5.763015747E-2,-6.822362823E0,-1.408570862E-1,6.824060115E0
1.666437900E1,-5.613327026E-2,-7.619155884E0,1.096170502E0,7.697809889E0
1.667441800E1,7.464976501E-1,-8.354426880E0,1.985920258E0,8.619604776E0
1.668445800E1,1.846260681E0,-8.754395142E0,3.058589630E0,9.455320371E0
1.669449700E1,2.983445892E0,-9.114396515E0,4.505331116E0,1.059580963E1
1.670453600E1,3.826792145E0,-9.533075867E0,5.826783142E0,1.180996509E1
1.671457600E1,4.658911743E0,-9.996512146E0,6.095175018E0,1.260106631E1
1.672461500E1,5.530698853E0,-1.029678772E1,6.025420074E0,1.314983476E1
1.673465500E1,6.018235016E0,-1.020607635E1,5.746999054E0,1.316856657E1
1.674469400E1,6.201004944E0,-9.610315247E0,5.128036194E0,1.253424815E1
1.675473300E1,6.470145264E0,-8.535250854E0,4.636308746E0,1.167084597E1
1.676477300E1,7.157964935E0,-7.206314392E0,4.509372711E0,1.111313958E1
1.677481200E1,8.059839478E0,-5.986650696E0,4.925357666E0,1.118302942E1
1.678485200E1,8.821755066E0,-4.917723541E0,6.155948639E0,1.182806286E1
1.679489100E1,1.007315277E1,-4.177812195E0,6.894363098E0,1.290173492E1
1.680493000E1,1.128952332E1,-3.885769501E0,7.057673492E0,1.386950960E1
1.681497000E1,1.196731384E1,-4.147874451E0,6.243366852E0,1.412094518E1
