"Time (s)","Acceleration x (m/s^2)","Acceleration y (m/s^2)","Acceleration z (m/s^2)","Absolute acceleration (m/s^2)"
1.381958333E-3,-4.121080170E0,6.244115295E0,5.638175354E0,9.368100069E0
1.142095833E-2,-3.919150085E0,6.264173584E0,5.153183899E0,9.008602132E0
2.145995833E-2,-3.816164246E0,5.568570099E0,5.530998230E0,8.727200233E0
3.149995834E-2,-3.147654419E0,5.058281250E0,5.762566681E0,8.288613412E0
4.153895834E-2,-2.547402649E0,5.138963470E0,6.328988800E0,8.541329231E0
5.157795833E-2,-2.243534546E0,5.280119934E0,7.148534546E0,9.165951120E0
6.161695833E-2,-2.367177429E0,5.283562775E0,7.555837555E0,9.518941419E0
7.165695833E-2,-2.643053741E0,5.219196625E0,7.732919312E0,9.696586387E0
8.169666667E-2,-2.363584900E0,4.493056641E0,9.301058350E0,1.059640401E1
9.173566667E-2,-1.919009399E0,1.975891113E0,1.388497604E1,1.415553964E1
1.017746667E-1,-4.050127716E0,1.966760101E0,1.598780319E1,1.660968184E1
1.118146667E-1,-3.701502686E0,3.720064087E0,1.260513748E1,1.365391848E1
1.218536667E-1,-2.307900696E0,4.344415741E0,7.910599823E0,9.315467960E0
1.318926667E-1,-3.884422302E-1,4.414320374E0,5.740712128E0,7.252095384E0
1.419316667E-1,1.428778839E0,3.994443512E0,5.305417328E0,6.792969966E0
1.519716667E-1,1.805695038E0,3.748355255E0,5.153183899E0,6.623141700E0
1.620106667E-1,1.119821320E0,3.440295868E0,6.014343109E0,7.018686379E0
1.720496667E-1,-1.100212097E-1,3.036884766E0,9.063202972E0,9.559101520E0
1.820886667E-1,-1.320703583E0,2.801723785E0,1.078282700E1,1.121888016E1
1.921286667E-1,-2.099983063E0,2.375859375E0,1.171957901E1,1.214097067E1
2.021676667E-1,-2.593506775E0,1.373394012E0,1.263881744E1,1.297506050E1
2.122066667E-1,-2.065854034E0,1.193617859E0,1.034708313E1,1.061859717E1
2.222466667E-1,-8.352630615E-1,1.169218597E0,9.440867615E0,9.549592548E0
2.322856667E-1,-1.151854706E0,1.118324432E0,1.089539291E1,1.101303798E1
2.423246667E-1,-9.442364502E-1,2.191891937E0,1.255244705E1,1.277731974E1
2.523636667E-1,-2.581232300E0,2.227218475E0,1.105451202E1,1.156829713E1
2.624036667E-1,-5.303022308E0,-1.190025330E-1,1.252939499E1,1.360595259E1
2.724426667E-1,-4.122427368E0,-1.123114471E0,1.152318741E1,1.228981861E1
2.824816667E-1,-2.084864502E0,-1.889071655E-1,7.386090546E0,7.677022825E0
2.925206667E-1,-3.395538940E0,1.591191101E-1,6.094875641E0,6.978718555E0
3.025606667E-1,-3.098406830E0,8.966354370E-2,5.541626129E0,6.349628697E0
3.125996667E-1,-2.899171143E0,-4.505630493E-2,4.407285004E0,5.275545895E0
3.226386667E-1,-3.296295319E0,-3.423381042E-1,3.786376190E0,5.031838914E0
3.326776667E-1,-3.220103760E0,-6.262976074E-1,2.874322815E0,4.361541994E0
3.427176667E-1,-2.944227448E0,-9.065148926E-1,1.824705505E0,3.580474088E0
3.527566667E-1,-2.981350250E0,-8.669970703E-1,1.414259033E0,3.411782796E0
3.627956667E-1,-4.033063202E0,-5.926176453E-1,2.040556641E0,4.558581563E0
3.728346667E-1,-4.974754944E0,-5.212161255E-1,2.954406281E0,5.809334684E0
3.828746667E-1,-5.258415070E0,-8.424481201E-1,3.414549408E0,6.326120101E0
3.929136667E-1,-5.509293365E0,-1.262774048E0,3.484603729E0,6.639983045E0
4.029526667E-1,-6.239175568E0,-1.659299469E0,3.544628906E0,7.365119183E0
4.129916667E-1,-6.495891724E0,-2.002685394E0,3.765569458E0,7.770899010E0
4.230316667E-1,-5.739065552E0,-2.008672943E0,3.924089813E0,7.236720339E0
4.330706667E-1,-5.203329620E0,-1.762285309E0,4.440066833E0,7.063602631E0
4.431096667E-1,-5.513035583E0,-1.222657471E0,5.155728607E0,7.646567211E0
4.531486667E-1,-6.872957611E0,-8.298742676E-1,6.094127197E0,9.223048516E0
4.631886667E-1,-8.192313995E0,-5.430706787E-1,6.289470978E0,1.034245520E1
4.732276667E-1,-9.847422180E0,-5.831872559E-1,6.196813660E0,1.164956353E1
4.832666667E-1,-1.022733215E1,-6.677613831E-1,6.229146423E0,1.199360219E1
4.933056667E-1,-9.903854828E0,-4.593946838E-1,6.064638519E0,1.162227277E1
5.033456667E-1,-9.601034546E0,-5.507048035E-1,5.885760498E0,1.127498633E1
5.133846667E-1,-8.185128937E0,-5.947132874E-1,5.876330109E0,1.009362547E1
5.234236667E-1,-6.202651520E0,-4.652325439E-1,6.222709808E0,8.798377382E0
5.334626667E-1,-6.342161407E0,-4.764591980E-1,7.077282715E0,9.515143473E0
5.435026667E-1,-7.646848297E0,-6.727011108E-1,7.899073792E0,1.101463492E1
5.535416667E-1,-8.638835449E0,-9.520202637E-1,8.543483734E0,1.218716271E1
5.635806667E-1,-1.008587631E1,-1.279389496E0,8.888665924E0,1.350444817E1
5.736206667E-1,-1.095796280E1,-1.605561218E0,8.536598053E0,1.398314277E1
5.836596667E-1,-1.087338867E1,-2.370021515E0,7.705675964E0,1.353606388E1
5.936986667E-1,-1.107876160E1,-2.366428986E0,5.974825287E0,1.280771181E1
6.037376667E-1,-1.069885162E1,-2.195334778E0,4.428989868E0,1.178562141E1
6.137776667E-1,-9.753417664E0,-2.625091095E0,3.523971863E0,1.069759959E1
6.238166667E-1,-8.856782227E0,-3.211571503E0,2.934198303E0,9.867436476E0
6.338556667E-1,-8.749305725E0,-3.467988281E0,2.788401489E0,9.815929719E0
6.438946667E-1,-9.217382355E0,-3.567680969E0,2.971770172E0,1.032084798E1
6.539346667E-1,-9.679621124E0,-3.701802063E0,3.133284302E0,1.082662801E1
6.639736667E-1,-1.025023453E1,-3.779490509E0,2.895578613E0,1.130204547E1
6.740126667E-1,-1.106678650E1,-3.686234436E0,2.543061676E0,1.193856149E1
6.840516667E-1,-1.156345367E1,-3.407813416E0,2.250270538E0,1.226337517E1
6.940916667E-1,-1.178319672E1,-3.193010101E0,2.180665283E0,1.240138458E1
7.041306667E-1,-1.199216217E1,-3.203188934E0,2.505489807E0,1.266293221E1
7.141696667E-1,-1.198752182E1,-3.256328430E0,2.754272461E0,1.272361470E1
7.242086667E-1,-1.163919617E1,-3.273991699E0,2.973566437E0,1.245118494E1
7.342486667E-1,-1.116887421E1,-3.350183258E0,3.121309204E0,1.207104180E1
7.442876667E-1,-1.091410400E1,-3.569776611E0,3.229085083E0,1.192845177E1
7.543266667E-1,-1.095481934E1,-3.859573975E0,3.279829559E0,1.206903724E1
7.643656667E-1,-1.153351593E1,-4.085903320E0,3.390449524E0,1.269691867E1
7.744056667E-1,-1.213541428E1,-4.304897919E0,3.520828400E0,1.334903211E1
7.844446667E-1,-1.234782257E1,-4.587210846E0,3.697910156E0,1.368158489E1
7.944836667E-1,-1.268956192E1,-4.763544159E0,3.960913239E0,1.412108949E1
8.045226667E-1,-1.284748352E1,-4.760550385E0,3.953877869E0,1.426021820E1
8.145626667E-1,-1.252610184E1,-4.791685638E0,3.766317902E0,1.393013385E1
8.246016667E-1,-1.202195023E1,-4.815336456E0,3.494333496E0,1.341361692E1
8.346406667E-1,-1.120240448E1,-4.642745361E0,3.025658112E0,1.249814217E1
8.446796667E-1,-1.024843826E1,-4.374952240E0,2.536325684E0,1.142819504E1
8.547196667E-1,-9.501940613E0,-4.215533752E0,2.240989838E0,1.063389090E1
8.647586667E-1,-9.157955933E0,-4.306245117E0,1.989662476E0,1.031361530E1
8.747976667E-1,-9.236243134E0,-4.413272552E0,1.919458466E0,1.041486835E1
8.848366667E-1,-9.562564545E0,-4.525539093E0,1.931882629E0,1.075431612E1
8.948766667E-1,-1.007075775E1,-4.695435791E0,1.732347565E0,1.124581287E1
9.049156667E-1,-1.008976822E1,-5.113067322E0,1.909429321E0,1.147139052E1
9.149546667E-1,-1.062236069E1,-5.504203949E0,2.041005707E0,1.213657744E1
9.249936667E-1,-1.111453720E1,-5.692811737E0,2.048939209E0,1.265461159E1
9.350336667E-1,-1.100960541E1,-5.763015747E0,1.969304810E0,1.258180922E1
9.450726667E-1,-1.055065979E1,-5.668113098E0,1.850152588E0,1.211886928E1
9.551116667E-1,-9.887389069E0,-5.456453247E0,1.873653717E0,1.144744176E1
9.651506667E-1,-9.363328857E0,-5.211562500E0,1.921404419E0,1.088687769E1
9.751906667E-1,-9.031468964E0,-5.090464325E0,1.895957336E0,1.053920836E1
9.852296667E-1,-8.831933899E0,-5.272785187E0,1.844314728E0,1.045020655E1
9.952686667E-1,-8.606053619E0,-5.485642548E0,1.785636749E0,1.036073992E1
1.005308667E0,-8.464298401E0,-5.628595276E0,1.789528656E0,1.032123273E1
1.015347667E0,-8.525371399E0,-5.775589600E0,1.749262390E0,1.044506159E1
1.025386667E0,-8.696016541E0,-6.088588715E0,1.649270325E0,1.074298417E1
1.035425667E0,-8.975036316E0,-6.527026978E0,1.524280243E0,1.120164221E1
1.045465667E0,-9.378447418E0,-6.903943176E0,1.362017670E0,1.172496480E1
1.055504667E0,-9.990524597E0,-7.137607269E0,1.160836029E0,1.233302718E1
1.065543667E0,-1.037926620E1,-7.107370148E0,9.892927551E-1,1.261834290E1
1.075582667E0,-1.016087036E1,-6.644532623E0,8.291258240E-1,1.216883519E1
1.085622292E0,-9.411678314E0,-5.757626953E0,8.123606873E-1,1.106299628E1
1.095661292E0,-8.476273499E0,-4.706512756E0,9.779164124E-1,9.744475115E0
1.105700292E0,-7.664960632E0,-3.772904205E0,1.268013153E0,8.636798307E0
1.115739292E0,-7.123985596E0,-3.099005585E0,1.601669312E0,7.932234929E0
1.125779292E0,-6.902895355E0,-2.720293121E0,1.912123718E0,7.661995567E0
1.135818292E0,-6.898853760E0,-2.698588257E0,2.123035126E0,7.706091092E0
1.145857292E0,-7.154522095E0,-3.042273560E0,2.282303925E0,8.102562929E0
1.155896292E0,-7.656278687E0,-3.692371674E0,2.222578125E0,8.785901515E0
1.165936292E0,-8.054300995E0,-4.523443451E0,1.764380951E0,9.404591714E0
1.175975292E0,-8.113577728E0,-5.373675385E0,1.253493347E0,9.812123942E0
1.186014292E0,-8.017028503E0,-6.055357819E0,8.701405334E-1,1.008450539E1
1.196053292E0,-7.737859039E0,-6.534960480E0,5.029541016E-1,1.014066733E1
1.206093292E0,-7.256759491E0,-6.915169830E0,1.960922241E-1,1.002589568E1
1.216132292E0,-6.712491302E0,-7.291038208E0,2.365081787E-2,9.910466033E0
1.226171292E0,-6.218219147E0,-7.542964325E0,2.409988403E-2,9.775640182E0
1.236210292E0,-5.964197388E0,-7.599696350E0,7.843688965E-2,9.660910280E0
1.246250292E0,-6.015690308E0,-7.594606934E0,1.493893433E-1,9.689628555E0
1.256289292E0,-6.154002686E0,-7.614066467E0,1.526824951E-1,9.791275155E0
1.266328292E0,-6.140231323E0,-7.671546936E0,1.580712891E-1,9.827515435E0
1.276367292E0,-5.985902252E0,-7.550748138E0,1.907034302E-1,9.637488834E0
1.286407292E0,-5.922883301E0,-7.264992371E0,2.163002014E-1,9.375897105E0
1.296446292E0,-6.148613892E0,-7.009773102E0,3.772155762E-1,9.331916380E0
1.306485292E0,-6.514004059E0,-6.755901031E0,6.523434448E-1,9.407443840E0
1.316524292E0,-6.900650024E0,-6.581813049E0,8.707392883E-1,9.575877019E0
1.326564292E0,-7.219487000E0,-6.472689972E0,8.807684326E-1,9.736142000E0
1.336603292E0,-7.276817780E0,-6.466552734E0,7.538323975E-1,9.764048574E0
1.346642292E0,-7.150779877E0,-6.493646393E0,6.056405640E-1,9.678217646E0
1.356681292E0,-7.009473724E0,-6.396947479E0,4.842430115E-1,9.502007695E0
1.366721292E0,-7.043153687E0,-6.172863464E0,3.818559265E-1,9.373156947E0
1.376760292E0,-7.095395050E0,-5.792654114E0,3.031196594E-1,9.164679707E0
1.386799292E0,-7.143145752E0,-5.457950134E0,1.698966980E-1,8.991252181E0
1.396838292E0,-7.252268829E0,-5.238057404E0,9.879455566E-3,8.946102288E0
1.406878292E0,-7.347470856E0,-5.128485260E0,-2.320175171E-1,8.963287408E0
1.416917292E0,-7.417525177E0,-5.123246155E0,-4.845423889E-1,9.027852028E0
1.426956292E0,-7.892637177E0,-5.148094482E0,-6.738986206E-1,9.447260860E0
1.436995292E0,-8.626111908E0,-5.087620239E0,-8.708889771E-1,1.005246905E1
1.447035292E0,-9.023984528E0,-4.979844360E0,-1.070723419E0,1.036231611E1
1.457074292E0,-9.024134216E0,-4.788691864E0,-1.269360352E0,1.029455409E1
1.467113292E0,-8.772657166E0,-4.577032013E0,-1.546434174E0,1.001499847E1
1.477152292E0,-8.358767853E0,-4.419260101E0,-1.813179474E0,9.627381766E0
1.487192292E0,-8.044720917E0,-4.367916870E0,-1.917362823E0,9.352674089E0
1.497231292E0,-8.105045471E0,-4.478387146E0,-1.846709747E0,9.442354071E0
1.507270292E0,-8.459208984E0,-4.734953613E0,-1.587448883E0,9.823339367E0
1.517310292E0,-9.002579041E0,-4.977599030E0,-1.154249725E0,1.035158026E1
1.527349292E0,-9.865534515E0,-5.066214752E0,-7.414082336E-1,1.111507937E1
1.537388292E0,-1.077908478E1,-4.889282684E0,-4.099974060E-1,1.184321965E1
1.547427292E0,-1.132140701E1,-4.659211121E0,-1.871109009E-1,1.224408084E1
1.557467292E0,-1.163051422E1,-4.498595123E0,-3.360511780E-1,1.247474046E1
1.567506292E0,-1.139086258E1,-4.225263519E0,-6.337820435E-1,1.216578324E1
1.577545292E0,-1.085707260E1,-3.977678375E0,-8.057743835E-1,1.159082495E1
1.587584292E0,-1.045006897E1,-3.937711487E0,-8.696914673E-1,1.120115514E1
1.597624292E0,-1.022014709E1,-4.095184021E0,-8.274792480E-1,1.104113494E1
1.607663292E0,-1.018003052E1,-4.390220490E0,-6.581813049E-1,1.110586601E1
1.617702292E0,-1.023137375E1,-4.681514740E0,-3.787124634E-1,1.125793108E1
1.627741292E0,-1.037238052E1,-4.951702881E0,-7.035369873E-2,1.149393704E1
1.637781292E0,-1.077504318E1,-5.175936584E0,1.859133911E-1,1.195518460E1
1.647820292E0,-1.123009689E1,-5.330265656E0,1.760339355E-1,1.243212758E1
1.657859292E0,-1.165446442E1,-5.514382782E0,3.338058472E-2,1.289325686E1
1.667898292E0,-1.200323914E1,-5.578000488E0,-1.230441284E-1,1.323657732E1
1.677938292E0,-1.204066132E1,-5.342839508E0,-2.306703186E-1,1.317484982E1
1.687977292E0,-1.171568710E1,-4.899910583E0,-3.067121887E-1,1.270277609E1
1.698016292E0,-1.112277008E1,-4.431684265E0,-3.782633972E-1,1.197910359E1
1.708055292E0,-1.053299652E1,-4.054618378E0,-4.134402466E-1,1.129401960E1
1.718095292E0,-1.018571869E1,-3.871249695E0,-4.098477173E-1,1.090428423E1
1.728134292E0,-9.973310394E0,-3.867507477E0,-3.275189209E-1,1.070195323E1
1.738173292E0,-9.822424164E0,-3.931873627E0,-8.726852417E-2,1.058051334E1
1.748212292E0,-9.811197510E0,-4.081861725E0,2.248324585E-1,1.062881655E1
1.758252292E0,-9.996811523E0,-4.256698151E0,5.519023132E-1,1.087935274E1
1.768291292E0,-1.008258316E1,-4.323309631E0,9.310638428E-1,1.100983057E1
1.778330292E0,-9.973609772E0,-4.324507141E0,1.261576538E0,1.094375755E1
1.788369292E0,-9.943222961E0,-4.395160217E0,1.468146973E0,1.096998504E1
1.798409292E0,-9.842033386E0,-4.540657654E0,1.554966431E0,1.094993670E1
1.808448292E0,-9.654623108E0,-4.652026062E0,1.631607056E0,1.084044443E1
1.818487292E0,-9.586065674E0,-4.697082367E0,1.676962738E0,1.080589848E1
1.828526292E0,-9.714049530E0,-4.739893341E0,1.676363983E0,1.093798626E1
1.838566292E0,-9.840985565E0,-4.782255249E0,1.682950287E0,1.107010767E1
1.848605292E0,-9.945468292E0,-4.849615173E0,1.595831451E0,1.117934635E1
1.858644292E0,-9.998009033E0,-4.949008484E0,1.453178101E0,1.125009316E1
1.868683292E0,-1.018407211E1,-5.092859344E0,1.368154907E0,1.146840830E1
1.878723292E0,-1.049467621E1,-5.275629272E0,1.342408447E0,1.182254429E1
1.888762292E0,-1.079584991E1,-5.456303558E0,1.250050507E0,1.216076684E1
1.898801292E0,-1.095332245E1,-5.603447571E0,1.205443268E0,1.236232142E1
1.908840292E0,-1.093970078E1,-5.723946991E0,1.163380737E0,1.240137399E1
1.918880292E0,-1.068762497E1,-5.824238434E0,1.281335449E0,1.223882761E1
1.928919292E0,-1.023032593E1,-5.813011780E0,1.451232147E0,1.185566317E1
1.938958292E0,-9.767638092E0,-5.729934540E0,1.542991333E0,1.142889872E1
1.948997292E0,-9.525741119E0,-5.668711853E0,1.581611023E0,1.119712157E1
1.959037292E0,-9.379046173E0,-5.670059052E0,1.460662537E0,1.105665464E1
1.969076292E0,-9.301507416E0,-5.671555939E0,1.268162842E0,1.096780853E1
1.979115292E0,-9.128467255E0,-5.561834106E0,1.074166260E0,1.074321861E1
1.989154292E0,-8.921747131E0,-5.324278107E0,8.846603394E-1,1.042727832E1
1.999194292E0,-8.778644714E0,-5.036426697E0,6.601272583E-1,1.014228598E1
2.009233292E0,-8.610993347E0,-4.812192993E0,5.054988098E-1,9.877344627E0
2.019272292E0,-8.440048828E0,-4.669240265E0,5.200186157E-1,9.659536647E0
2.029311292E0,-8.242459717E0,-4.559817810E0,7.658074951E-1,9.450742921E0
2.039351292E0,-8.040679321E0,-4.499044189E0,1.066532135E0,9.275312036E0
2.049390292E0,-7.819289703E0,-4.561015320E0,1.271455994E0,9.141157069E0
2.059429292E0,-7.578889618E0,-4.657564545E0,1.411115570E0,9.006870848E0
2.069468292E0,-7.286397858E0,-4.613406372E0,1.427880707E0,8.741507616E0
2.079508292E0,-6.910529480E0,-4.536017303E0,1.385967865E0,8.381633349E0
2.089547167E0,-6.649771729E0,-4.470303955E0,1.362317047E0,8.127668130E0
2.099586167E0,-6.484665070E0,-4.336482239E0,1.314266968E0,7.910958029E0
2.109625167E0,-6.342460785E0,-4.217928772E0,1.247056732E0,7.718347130E0
2.119665167E0,-6.204896851E0,-4.124073944E0,1.156644745E0,7.539665635E0
2.129704167E0,-6.225254517E0,-4.027674408E0,1.091679840E0,7.494512646E0
2.139743167E0,-6.384373627E0,-3.913910980E0,1.097517700E0,7.568584469E0
2.149783167E0,-6.520740051E0,-3.990551605E0,1.043330383E0,7.715768997E0
2.159822167E0,-6.647077332E0,-4.228706360E0,8.821156311E-1,7.927403264E0
2.169861167E0,-6.634353790E0,-4.371060333E0,6.738986206E-1,7.973390621E0
2.179900167E0,-6.397845612E0,-4.445605316E0,4.972659302E-1,7.806606721E0
2.189940167E0,-6.115832062E0,-4.534670105E0,3.411405945E-1,7.621221141E0
2.199979167E0,-5.913452911E0,-4.650978241E0,1.670526123E-1,7.525186410E0
2.210018167E0,-5.955964508E0,-4.818479919E0,1.002914429E-2,7.661028817E0
2.220057167E0,-6.235283661E0,-5.097948761E0,-8.262817383E-2,8.054481443E0
2.230097167E0,-6.555168457E0,-5.470523987E0,-1.202000427E-1,8.538812227E0
2.240136167E0,-6.808441772E0,-5.807024231E0,-5.358856201E-2,8.948702784E0
2.250175167E0,-7.034172363E0,-5.992189178E0,4.385879517E-2,9.240553857E0
2.260214167E0,-7.232659607E0,-6.009253693E0,1.468446350E-1,9.404470122E0
2.270254167E0,-7.441475372E0,-5.901328125E0,2.368075562E-1,9.500384580E0
2.280293167E0,-7.719447327E0,-5.735473022E0,1.984872437E-1,9.618987213E0
2.290332167E0,-7.959098969E0,-5.639971619E0,3.832031250E-2,9.754896447E0
2.300371167E0,-8.186176758E0,-5.737418976E0,-2.240840149E-1,9.999083961E0
2.310411167E0,-8.462951202E0,-5.910608826E0,-4.706213379E-1,1.033335977E1
2.320450167E0,-8.775201874E0,-6.072871399E0,-6.867718506E-1,1.069371734E1
2.330489167E0,-8.965755615E0,-6.224955139E0,-8.276289368E-1,1.094622354E1
2.340528167E0,-9.060807953E0,-6.343508606E0,-9.395960999E-1,1.110050373E1
2.350568167E0,-8.963360596E0,-6.297554169E0,-9.527687073E-1,1.099585330E1
2.360607167E0,-8.756341095E0,-6.058800659E0,-7.929011536E-1,1.067760587E1
2.370646167E0,-8.559949493E0,-5.666466522E0,-4.867877197E-1,1.027708813E1
2.380685167E0,-8.619525604E0,-5.284311218E0,-2.571652222E-1,1.011366900E1
2.390725167E0,-8.835376740E0,-5.030588837E0,-8.846603394E-2,1.016752342E1
2.400764167E0,-9.046737213E0,-4.858895874E0,4.939727783E-3,1.026899935E1
2.410803167E0,-9.302854614E0,-4.703219604E0,3.981719971E-2,1.042424885E1
2.420842167E0,-9.516610107E0,-4.546794891E0,8.143066406E-2,1.054731448E1
2.430882167E0,-9.523346100E0,-4.417763214E0,1.839674377E-1,1.049974270E1
2.440921167E0,-9.455237732E0,-4.381089478E0,2.305206299E-1,1.042346417E1
2.450960167E0,-9.292825470E0,-4.419260101E0,1.869612122E-1,1.029181323E1
2.460999167E0,-9.000932465E0,-4.423451385E0,9.954299927E-2,1.002963689E1
2.471039167E0,-8.801996155E0,-4.458777924E0,2.709365845E-2,9.866943344E0
2.481078167E0,-8.827293549E0,-4.588108978E0,-4.655319214E-2,9.948568871E0
2.491117167E0,-8.962612152E0,-4.773423615E0,-9.789642334E-2,1.015497776E1
2.501156167E0,-9.358089752E0,-4.997058563E0,-8.741821289E-2,1.060905651E1
2.511196167E0,-9.671837311E0,-5.238955536E0,1.631607056E-2,1.099960719E1
2.521235167E0,-9.674831085E0,-5.474565582E0,2.104623413E-1,1.111834157E1
2.531274167E0,-9.532028046E0,-5.563929749E0,4.481680298E-1,1.104616347E1
2.541313167E0,-9.320966949E0,-5.515430603E0,6.547384644E-1,1.085030332E1
2.551353167E0,-9.171128540E0,-5.399571533E0,7.373666382E-1,1.066811516E1
2.561392167E0,-8.968599701E0,-5.314398651E0,7.777825928E-1,1.045387772E1
2.571431167E0,-8.861572266E0,-5.257217560E0,7.512876892E-1,1.033103251E1
2.581470167E0,-8.841214600E0,-5.137616272E0,5.957611084E-1,1.024290524E1
2.591510167E0,-8.742420044E0,-4.930896149E0,4.408332825E-1,1.004678949E1
2.601549167E0,-8.855884094E0,-4.724924469E0,3.222798157E-1,1.004268184E1
2.611588167E0,-9.227112122E0,-4.528233490E0,2.850073242E-1,1.028230158E1
2.621627167E0,-9.367370453E0,-4.369713135E0,4.391867065E-1,1.034576759E1
2.631667167E0,-9.469757538E0,-4.272565155E0,6.593788147E-1,1.040989439E1
2.641706167E0,-9.523645477E0,-4.152963867E0,7.741900635E-1,1.041855567E1
2.651745167E0,-9.477541351E0,-4.039200439E0,9.449848938E-1,1.034562355E1
2.661784167E0,-9.493108978E0,-4.048032074E0,1.095422058E0,1.037813236E1
2.671824167E0,-9.681716766E0,-4.110302582E0,1.080153809E0,1.057340811E1
2.681863167E0,-9.857301636E0,-4.086352386E0,9.686357117E-1,1.071461276E1
2.691902167E0,-9.901010742E0,-3.971092072E0,8.683442688E-1,1.070297191E1
2.701942167E0,-1.002195923E1,-3.795806580E0,6.816824341E-1,1.073836604E1
2.711981167E0,-1.025173141E1,-3.614084473E0,4.065545654E-1,1.087772450E1
2.722020167E0,-1.045890060E1,-3.461551666E0,1.552272034E-1,1.101794161E1
2.732059167E0,-1.056562866E1,-3.311413879E0,-1.631607056E-2,1.107240882E1
2.742099167E0,-1.069974976E1,-3.153941345E0,-1.350192261E-1,1.115572593E1
2.752138167E0,-1.075438614E1,-3.005599823E0,-1.637594604E-1,1.116768860E1
2.762177167E0,-1.076905563E1,-2.882106628E0,-9.385482788E-2,1.114844862E1
2.772216167E0,-1.091125992E1,-2.788102112E0,-4.041595459E-3,1.126184366E1
2.782256167E0,-1.097532669E1,-2.647095337E0,4.894821167E-2,1.129014197E1
2.792295167E0,-1.090197922E1,-2.642005920E0,-0.000000000E0,1.121754635E1
2.802334167E0,-1.097951797E1,-2.803520050E0,-6.541397095E-2,1.133198211E1
2.812373167E0,-1.099224152E1,-2.884950714E0,-1.200503540E-1,1.136515404E1
2.822413167E0,-1.093790451E1,-2.919229431E0,-9.789642334E-2,1.132118542E1
2.832452167E0,-1.087428680E1,-2.993924103E0,-6.406677246E-2,1.127908682E1
2.842491167E0,-1.083791245E1,-3.060236206E0,-9.041198730E-2,1.126204094E1
2.852530167E0,-1.077639038E1,-3.062631226E0,-1.255888367E-1,1.120384185E1
2.862570167E0,-1.071651489E1,-3.020718384E0,-2.149530029E-1,1.113618587E1
2.872609167E0,-1.060724213E1,-2.990032196E0,-3.330574036E-1,1.102564308E1
2.882648167E0,-1.055275543E1,-3.022215271E0,-4.044589233E-1,1.098444443E1
2.892687167E0,-1.065184937E1,-3.085832977E0,-4.192781067E-1,1.109774996E1
2.902727167E0,-1.075737991E1,-3.204536133E0,-3.935316467E-1,1.123143542E1
2.912766167E0,-1.080542999E1,-3.292852478E0,-2.659968567E-1,1.129915701E1
2.922805167E0,-1.104313568E1,-3.458857269E0,-1.930984497E-1,1.157375593E1
2.932844167E0,-1.137424713E1,-3.655099182E0,-2.404000854E-1,1.194952049E1
2.942884167E0,-1.163964523E1,-3.937561798E0,-2.697390747E-1,1.229058555E1
2.952923167E0,-1.182855240E1,-4.285737762E0,-3.086581421E-1,1.258481108E1
2.962962167E0,-1.187869812E1,-4.556973724E0,-2.790197754E-1,1.272585284E1
2.973001167E0,-1.178753769E1,-4.719685364E0,-1.642085266E-1,1.269836364E1
2.983041167E0,-1.159413986E1,-4.698579254E0,4.715194702E-2,1.251011389E1
2.993080167E0,-1.126048370E1,-4.555177460E0,3.134481812E-1,1.215098287E1
3.003119167E0,-1.086395828E1,-4.307442627E0,5.721102905E-1,1.170072484E1
3.013158167E0,-1.048704208E1,-4.051624603E0,7.937992859E-1,1.127048495E1
3.023198167E0,-1.021221359E1,-3.848946075E0,9.184899902E-1,1.095204621E1
3.033237167E0,-1.010892838E1,-3.833977203E0,9.478289795E-1,1.085302694E1
3.043276167E0,-1.021969803E1,-4.011208649E0,9.485774231E-1,1.101961078E1
3.053316167E0,-1.041459274E1,-4.319118347E0,9.621990967E-1,1.131566845E1
3.063355167E0,-1.056577835E1,-4.679568787E0,1.009949799E0,1.159974288E1
3.073394167E0,-1.067789520E1,-5.088817749E0,1.081950073E0,1.187788399E1
3.083433167E0,-1.081890198E1,-5.510191498E0,1.153650970E0,1.219597314E1
3.093473167E0,-1.089404572E1,-5.806724854E0,1.210382996E0,1.240416513E1
3.103512167E0,-1.082219513E1,-5.976172485E0,1.356479187E0,1.243682358E1
3.113551167E0,-1.056098831E1,-6.027066650E0,1.497785339E0,1.225166795E1
3.123590167E0,-1.023960663E1,-5.921985168E0,1.622026978E0,1.193944822E1
3.133630167E0,-9.855505371E0,-5.728138275E0,1.692230988E0,1.152415723E1
3.143669167E0,-9.412726135E0,-5.493725739E0,1.712888031E0,1.103242590E1
3.153708167E0,-8.960815887E0,-5.253175964E0,1.758692780E0,1.053494563E1
3.163747167E0,-8.645571442E0,-5.126389618E0,1.802551575E0,1.021151156E1
3.173787167E0,-8.563392334E0,-5.164260864E0,1.807341614E0,1.016207470E1
3.183826167E0,-8.573122101E0,-5.285508728E0,1.747017059E0,1.022189286E1
3.193865167E0,-8.591683502E0,-5.342091064E0,1.669328613E0,1.025385880E1
3.203904167E0,-8.530909882E0,-5.234913940E0,1.622176666E0,1.013963532E1
3.213944167E0,-8.529412994E0,-5.059628448E0,1.519041138E0,1.003285662E1
3.223983167E0,-8.688382416E0,-4.968168640E0,1.358125763E0,1.010025714E1
3.234022167E0,-8.969348145E0,-4.985682220E0,1.197659454E0,1.033153529E1
3.244061167E0,-9.481882324E0,-5.173092499E0,1.071322174E0,1.085424846E1
3.254101167E0,-1.008243347E1,-5.519172821E0,1.015488281E0,1.153897525E1
3.264140167E0,-1.049377808E1,-5.813011780E0,1.074315948E0,1.204427827E1
3.274179167E0,-1.059676392E1,-5.946384430E0,1.110091553E0,1.220177022E1
3.284218167E0,-1.034378998E1,-5.968837738E0,1.044228516E0,1.198797015E1
3.294258167E0,-9.880653076E0,-5.863307190E0,9.979747009E-1,1.153263326E1
3.304297167E0,-9.368867340E0,-5.666915588E0,9.485774231E-1,1.099042341E1
3.314336167E0,-8.873098297E0,-5.418582001E0,8.219407654E-1,1.042921334E1
3.324375167E0,-8.525371399E0,-5.215903473E0,6.988966370E-1,1.001878551E1
3.334415167E0,-8.349786530E0,-5.145400085E0,6.372248840E-1,9.828536650E0
3.344454167E0,-8.406668243E0,-5.299130402E0,7.008425903E-1,9.962130008E0
3.354493167E0,-8.524024200E0,-5.537734222E0,9.352551270E-1,1.020784948E1
3.364533167E0,-8.565637665E0,-5.701793060E0,1.243464203E0,1.036468986E1
3.374572167E0,-8.432863770E0,-5.709726562E0,1.410516815E0,1.028123176E1
3.384611167E0,-8.104297028E0,-5.636229401E0,1.522184601E0,9.988180922E0
3.394650167E0,-7.686216431E0,-5.479205933E0,1.595232697E0,9.573107543E0
3.404690167E0,-7.329059143E0,-5.339097290E0,1.622326355E0,9.211569388E0
3.414729167E0,-7.045848083E0,-5.245541840E0,1.685644684E0,8.944332418E0
3.424768167E0,-6.829398193E0,-5.133724365E0,1.799707489E0,8.731251490E0
3.434807167E0,-6.918912048E0,-5.153483276E0,1.891616364E0,8.832210724E0
3.444847167E0,-7.151079254E0,-5.302423553E0,1.874851227E0,9.097730330E0
3.454886167E0,-7.250472565E0,-5.446573792E0,1.840722198E0,9.253257626E0
3.464925167E0,-7.309898987E0,-5.609734497E0,1.776206360E0,9.383957233E0
3.474964167E0,-7.369475098E0,-5.802683258E0,1.695673828E0,9.531820704E0
3.485004167E0,-7.422464905E0,-5.957611084E0,1.590292969E0,9.649618999E0
3.495043167E0,-7.471263428E0,-6.045029297E0,1.497036896E0,9.726421535E0
3.505082167E0,-7.483088837E0,-6.121669922E0,1.395547943E0,9.768265723E0
3.515121167E0,-7.504644012E0,-6.181096344E0,1.202748871E0,9.796542176E0
3.525161167E0,-7.535779266E0,-6.203998718E0,9.729766846E-1,9.809396152E0
3.535200167E0,-7.613018646E0,-6.169121246E0,6.833290100E-1,9.822578500E0
3.545239167E0,-7.652237091E0,-6.077661438E0,4.129911804E-1,9.780862067E0
3.555278167E0,-7.614665222E0,-5.957760773E0,1.769320679E-1,9.670023000E0
3.565318167E0,-7.602091370E0,-5.841602325E0,-2.589614868E-2,9.587324003E0
3.575357167E0,-7.554490356E0,-5.769602051E0,-2.326162720E-1,9.508561547E0
3.585396167E0,-7.587272186E0,-5.713019714E0,-4.186793518E-1,9.506870457E0
3.595435167E0,-7.708969116E0,-5.669759674E0,-6.448590088E-1,9.591153358E0
3.605475167E0,-7.951315155E0,-5.728437653E0,-8.900491333E-1,9.840253965E0
3.615514167E0,-8.220904541E0,-5.818849640E0,-1.141675873E0,1.013635568E1
3.625553167E0,-8.394393768E0,-5.837560730E0,-1.435065765E0,1.032484265E1
3.635593167E0,-8.302185516E0,-5.708379364E0,-1.689087524E0,1.021591386E1
3.645632167E0,-7.910150757E0,-5.353617096E0,-1.826651459E0,9.724626294E0
3.655671167E0,-7.405400391E0,-4.792434082E0,-1.849703522E0,9.012701176E0
3.665710167E0,-6.952292633E0,-4.200714569E0,-1.786235504E0,8.316911267E0
3.675750167E0,-6.793173523E0,-3.703748016E0,-1.708097992E0,7.923544323E0
3.685789167E0,-6.984625397E0,-3.344495087E0,-1.557511139E0,7.899144274E0
3.695828167E0,-7.465874634E0,-3.163970490E0,-1.448687439E0,8.237031541E0
3.705867167E0,-8.035290527E0,-3.169658661E0,-1.463356934E0,8.760938500E0
3.715907167E0,-8.361013184E0,-3.229534149E0,-1.462159424E0,9.081538551E0
3.725946167E0,-8.513545990E0,-3.300037537E0,-1.359173584E0,9.231363166E0
3.735985167E0,-8.501870270E0,-3.370241547E0,-1.256038055E0,9.231357309E0
3.746024167E0,-8.309370575E0,-3.464994507E0,-1.364861755E0,9.105749497E0
3.756064167E0,-8.105344849E0,-3.747008057E0,-1.342109070E0,9.029836169E0
3.766103167E0,-8.101602631E0,-4.096381531E0,-1.246008911E0,9.163451590E0
3.776142167E0,-8.220455475E0,-4.501439209E0,-1.094224548E0,9.435897971E0
3.786181167E0,-8.306676178E0,-4.880900116E0,-8.158035278E-1,9.669001524E0
3.796221167E0,-8.408314819E0,-5.138813782E0,-4.772076416E-1,9.865844734E0
3.806260167E0,-8.520581360E0,-5.288053436E0,-1.910028076E-1,1.002996999E1
3.816299167E0,-8.482859802E0,-5.393733673E0,5.763015747E-2,1.005259144E1
3.826339167E0,-8.398585052E0,-5.490282898E0,2.743794250E-1,1.003766513E1
3.836378167E0,-8.293204193E0,-5.532944183E0,4.794529724E-1,9.981011085E0
3.846417167E0,-8.137527924E0,-5.521867218E0,6.881190491E-1,9.858188784E0
3.856456167E0,-8.081843719E0,-5.451812897E0,8.518785095E-1,9.785916348E0
3.866496167E0,-8.027506714E0,-5.324278107E0,9.836045837E-1,9.682782626E0
3.876535167E0,-7.949518890E0,-5.203329620E0,1.002764740E0,9.553796463E0
3.886574167E0,-7.962092743E0,-5.128634949E0,9.071136475E-1,9.514235253E0
3.896613167E0,-8.118367767E0,-5.131778412E0,7.339237976E-1,9.632325213E0
3.906653167E0,-8.254135437E0,-5.156776428E0,5.493576050E-1,9.748071026E0
3.916692167E0,-8.385711823E0,-5.204377441E0,4.432283020E-1,9.879380479E0
3.926731167E0,-8.593928833E0,-5.245242462E0,4.543052673E-1,1.007842123E1
3.936770167E0,-8.871601410E0,-5.264701996E0,4.207749939E-1,1.032470098E1
3.946810167E0,-9.084159393E0,-5.215903473E0,3.890409851E-1,1.048231624E1
3.956849167E0,-9.238638153E0,-5.159470825E0,3.339555359E-1,1.058697787E1
3.966888167E0,-9.308093719E0,-5.110073547E0,2.368075562E-1,1.062118346E1
3.976927167E0,-9.350755005E0,-5.005141754E0,7.559280396E-2,1.060630838E1
3.986967167E0,-9.561816101E0,-4.886737976E0,-1.291813660E-1,1.073895819E1
3.997006167E0,-9.780661011E0,-4.724176025E0,-3.341052246E-1,1.086695888E1
4.007045167E0,-9.874066772E0,-4.477938080E0,-5.249583435E-1,1.085470890E1
4.017084167E0,-9.988728333E0,-4.206851807E0,-7.607180786E-1,1.086512714E1
4.027124167E0,-1.014605118E1,-3.938609619E0,-9.232800293E-1,1.092279480E1
4.037163167E0,-1.037477554E1,-3.791465607E0,-9.821076965E-1,1.108944158E1
4.047202167E0,-1.066666855E1,-3.760330353E0,-9.595046997E-1,1.135070709E1
4.057242167E0,-1.095107712E1,-3.750750275E0,-9.066645813E-1,1.161104036E1
4.067281167E0,-1.120060822E1,-3.708538055E0,-8.732839966E-1,1.183087080E1
4.077320167E0,-1.124461670E1,-3.594175873E0,-8.976832581E-1,1.183914440E1
4.087358792E0,-1.109672424E1,-3.472329254E0,-9.087602234E-1,1.166277002E1
4.097398792E0,-1.098251175E1,-3.404370575E0,-9.831555176E-1,1.154001292E1
4.107437792E0,-1.098116455E1,-3.408112793E0,-1.101858673E0,1.155055411E1
4.117476792E0,-1.104328537E1,-3.464096375E0,-1.232536926E0,1.163929821E1
4.127515792E0,-1.107217529E1,-3.476819916E0,-1.182391205E0,1.166530717E1
4.137555792E0,-1.104313568E1,-3.452270966E0,-9.671388245E-1,1.161052876E1
4.147594792E0,-1.102996307E1,-3.412004700E0,-6.752458191E-1,1.156537152E1
4.157633792E0,-1.100571350E1,-3.427572327E0,-4.290078735E-1,1.153507822E1
4.167672792E0,-1.099284027E1,-3.483406219E0,-2.341131592E-1,1.153392670E1
4.177712792E0,-1.099837875E1,-3.588038635E0,-5.912704468E-2,1.156900395E1
4.187751792E0,-1.096634537E1,-3.698808289E0,7.828720093E-2,1.157359246E1
4.197790792E0,-1.094044922E1,-3.749702454E0,1.387614441E-1,1.156602578E1
4.207830792E0,-1.080812439E1,-3.772604828E0,2.261796570E-1,1.144985839E1
4.217869792E0,-1.073178314E1,-3.797902222E0,3.191363525E-1,1.138846253E1
4.227908792E0,-1.086725143E1,-3.808829498E0,3.531156921E-1,1.152080842E1
4.237947792E0,-1.096140564E1,-3.791465607E0,3.718267822E-1,1.160456290E1
4.247987792E0,-1.104208786E1,-3.786226501E0,3.591032410E-1,1.167870586E1
4.258026792E0,-1.111947693E1,-3.749852142E0,3.685336304E-1,1.174052704E1
4.268065792E0,-1.111857880E1,-3.673510895E0,4.105961609E-1,1.171691367E1
4.278104792E0,-1.107217529E1,-3.553011475E0,4.861889648E-1,1.163844216E1
4.288144792E0,-1.090572144E1,-3.438200226E0,5.496569824E-1,1.144806113E1
4.298183792E0,-1.057715469E1,-3.294648743E0,6.583309937E-1,1.109794177E1
4.308222792E0,-1.017778519E1,-3.092119904E0,8.310717773E-1,1.066954531E1
4.318261792E0,-9.817484436E0,-2.943479004E0,9.874964905E-1,1.029670912E1
4.328301792E0,-9.580227814E0,-2.944526825E0,1.157842255E0,1.008918242E1
4.338340792E0,-9.496851196E0,-3.098257141E0,1.303938446E0,1.007420644E1
4.348379792E0,-9.609267426E0,-3.407963104E0,1.379531250E0,1.028860240E1
4.358418792E0,-9.840686188E0,-3.782783661E0,1.397194519E0,1.063488173E1
4.368458792E0,-1.006491989E1,-4.140090637E0,1.441951447E0,1.097825974E1
4.378497792E0,-1.034588562E1,-4.483326874E0,1.551224213E0,1.138173386E1
4.388536792E0,-1.054691757E1,-4.812941437E0,1.612746277E0,1.170482064E1
4.398576792E0,-1.071337143E1,-5.075196075E0,1.655856628E0,1.196978712E1
4.408615792E0,-1.071711365E1,-5.181475067E0,1.710043945E0,1.202615729E1
4.418654792E0,-1.049587372E1,-5.110522614E0,1.769470367E0,1.180727877E1
4.428693792E0,-1.023227188E1,-4.959337006E0,1.777403870E0,1.150884772E1
4.438733792E0,-1.010997620E1,-4.847519531E0,1.703008575E0,1.134064824E1
4.448772792E0,-1.006102798E1,-4.683161316E0,1.602118378E0,1.121262981E1
4.458811792E0,-9.977351990E0,-4.426445160E0,1.591939545E0,1.103065007E1
4.468850792E0,-1.002659958E1,-4.158652039E0,1.661544800E0,1.098124843E1
4.478890792E0,-1.012404694E1,-3.951033783E0,1.745220795E0,1.100694281E1
4.488929792E0,-1.026714935E1,-3.859873352E0,1.793719940E0,1.111442348E1
4.498968792E0,-1.051623138E1,-3.919898529E0,1.793570251E0,1.136545737E1
4.509007792E0,-1.065349594E1,-3.984264679E0,1.804647217E0,1.151642707E1
4.519047792E0,-1.058029816E1,-4.034410400E0,1.787582703E0,1.146362195E1
4.529086792E0,-1.047192352E1,-4.170327759E0,1.789828033E0,1.141298823E1
4.539125792E0,-1.051757858E1,-4.488715668E0,1.679956512E0,1.155812621E1
4.549165792E0,-1.056502991E1,-4.898264008E0,1.407523041E0,1.173004554E1
4.559204792E0,-1.051952454E1,-5.202132111E0,1.167122955E0,1.179341982E1
4.569243792E0,-1.049811905E1,-5.404062195E0,1.062191162E0,1.185506819E1
4.579282792E0,-1.044018951E1,-5.590873718E0,9.966275024E-1,1.188480931E1
4.589322792E0,-1.028960266E1,-5.751639404E0,9.815089417E-1,1.182880546E1
4.599361792E0,-1.007315277E1,-5.841452637E0,1.019080811E0,1.168886228E1
4.609400792E0,-9.888885956E0,-5.941893768E0,1.130299530E0,1.159196895E1
4.619439792E0,-9.839039612E0,-6.165678406E0,1.271455994E0,1.168070593E1
4.629479792E0,-9.826166382E0,-6.477180634E0,1.453627167E0,1.185834924E1
4.639518792E0,-9.678573303E0,-6.724616089E0,1.696721649E0,1.190689326E1
4.649557792E0,-9.341773682E0,-6.794221344E0,1.964215393E0,1.171700991E1
4.659596792E0,-8.878187714E0,-6.749763794E0,2.207160187E0,1.136895265E1
4.669636792E0,-8.420888672E0,-6.675667877E0,2.349963226E0,1.099991976E1
4.679675792E0,-8.067174225E0,-6.709796906E0,2.469863892E0,1.077965223E1
4.689714792E0,-7.759863281E0,-6.695127411E0,2.563569031E0,1.056466258E1
4.699753792E0,-7.440876617E0,-6.539900208E0,2.684966583E0,1.026381923E1
4.709793792E0,-7.170089722E0,-6.362668762E0,2.812800751E0,9.990274694E0
4.719832792E0,-6.947951660E0,-6.214776306E0,2.812201996E0,9.736835054E0
4.729871792E0,-6.781198425E0,-6.032904510E0,2.811752930E0,9.501923145E0
4.739911792E0,-6.732998657E0,-5.945486298E0,2.712658997E0,9.382995101E0
4.749950792E0,-6.828200684E0,-5.983806610E0,2.499951324E0,9.417007101E0
4.759989792E0,-6.915319519E0,-6.031557312E0,2.252366180E0,9.448517401E0
4.770028792E0,-7.100185089E0,-6.109545135E0,1.968107300E0,9.571447979E0
4.780068792E0,-7.367529144E0,-6.245612183E0,1.646725616E0,9.797951954E0
4.790107792E0,-7.551346893E0,-6.412964172E0,1.381926270E0,1.000293305E1
4.800146792E0,-7.615713043E0,-6.545139313E0,1.180744629E0,1.011098866E1
4.810185792E0,-7.693551178E0,-6.656208344E0,1.009500732E0,1.022325442E1
4.820225792E0,-7.870183868E0,-6.813680878E0,8.529263306E-1,1.044478456E1
4.830264792E0,-8.016280060E0,-6.957831116E0,6.641688538E-1,1.063547273E1
4.840303792E0,-8.072413330E0,-7.015610962E0,4.655319214E-1,1.070510972E1
4.850343792E0,-8.009244690E0,-6.991810455E0,2.079176331E-1,1.063375022E1
4.860382792E0,-7.855364685E0,-6.911726990E0,-2.335144043E-2,1.046323418E1
4.870421792E0,-7.707771606E0,-6.817572784E0,-2.511776733E-1,1.029330520E1
4.880460792E0,-7.541168060E0,-6.742728424E0,-4.915777588E-1,1.012794407E1
4.890500792E0,-7.300917664E0,-6.645580444E0,-7.068301392E-1,9.897815265E0
4.900539792E0,-7.066056061E0,-6.571933594E0,-8.759783936E-1,9.689519986E0
4.910578792E0,-6.810537415E0,-6.514004059E0,-1.043180695E0,9.481766434E0
4.920617792E0,-6.570137329E0,-6.455326080E0,-1.157692566E0,9.283220961E0
4.930657792E0,-6.260281677E0,-6.322252808E0,-1.236279144E0,8.982783164E0
4.940696792E0,-5.732329559E0,-5.932613068E0,-1.163530426E0,8.331224582E0
4.950735792E0,-5.259013824E0,-5.356161804E0,-9.090596008E-1,7.561222456E0
4.960774792E0,-5.101840668E0,-4.730313263E0,-6.092330933E-1,6.983967835E0
4.970814792E0,-5.173691254E0,-4.190835114E0,-3.733236694E-1,6.668549370E0
4.980853792E0,-5.455704803E0,-3.785927124E0,-2.615061951E-1,6.645776447E0
4.990892792E0,-5.889951782E0,-3.607348480E0,-3.927832031E-1,6.918003592E0
5.000932792E0,-6.209537201E0,-3.645219727E0,-7.183561707E-1,7.236160217E0
5.010971792E0,-6.502178650E0,-3.651356964E0,-9.481283569E-1,7.517292216E0
5.021010792E0,-6.916067963E0,-3.679348755E0,-1.182241516E0,7.922581544E0
5.031049792E0,-7.540569305E0,-3.815864868E0,-1.551673279E0,8.592362894E0
5.041089792E0,-8.064330139E0,-4.023932190E0,-1.908082123E0,9.212286809E0
5.051128792E0,-8.358618164E0,-4.318220215E0,-2.078427887E0,9.635008351E0
5.061167792E0,-8.583600311E0,-4.668791199E0,-2.122436371E0,9.999027038E0
5.071206792E0,-8.705596619E0,-5.082081757E0,-2.088906097E0,1.029458577E1
5.081246792E0,-8.709189148E0,-5.428012390E0,-1.946851501E0,1.044526328E1
5.091286458E0,-8.699758759E0,-5.629194031E0,-1.652713165E0,1.049309719E1
5.101325458E0,-8.829688568E0,-5.753735046E0,-1.291514282E0,1.061776230E1
5.111364458E0,-9.051676941E0,-5.892496490E0,-9.610015869E-1,1.084333410E1
5.121404458E0,-9.247320099E0,-5.955964508E0,-6.872209167E-1,1.102083095E1
5.131443458E0,-9.418863373E0,-5.946234741E0,-5.129832458E-1,1.115059849E1
5.141482458E0,-9.545500031E0,-5.858816528E0,-4.661306763E-1,1.120979838E1
5.151522458E0,-9.481882324E0,-5.746699677E0,-4.272116089E-1,1.109563695E1
5.161561458E0,-9.302555237E0,-5.652395782E0,-2.945874023E-1,1.088916405E1
5.171600458E0,-9.158255310E0,-5.590274963E0,-2.119592285E-1,1.073171660E1
5.181639458E0,-9.023086395E0,-5.550457764E0,-1.742376709E-1,1.059500015E1
5.191679458E0,-8.976084137E0,-5.540428619E0,-6.481521606E-2,1.054848978E1
5.201718458E0,-8.967252502E0,-5.583089905E0,4.415817261E-2,1.056335459E1
5.211757458E0,-8.957223358E0,-5.597160645E0,1.722917175E-1,1.056360459E1
5.221796458E0,-8.891210632E0,-5.588628387E0,2.775228882E-1,1.050539922E1
5.231836458E0,-8.814869385E0,-5.585634613E0,3.406915283E-1,1.044113533E1
5.241875458E0,-8.828191681E0,-5.563929749E0,4.167333984E-1,1.044356018E1
5.251914458E0,-9.016949158E0,-5.451962585E0,5.083428955E-1,1.054929764E1
5.261954458E0,-9.260193329E0,-5.230872345E0,5.258564758E-1,1.064846144E1
5.271993458E0,-9.461674347E0,-5.011129303E0,4.056564331E-1,1.071444145E1
5.282032458E0,-9.539961548E0,-4.821623383E0,1.709445190E-1,1.069056315E1
5.292071458E0,-9.479337616E0,-4.659809875E0,-1.243913269E-1,1.056348157E1
5.302111458E0,-9.330547028E0,-4.463717651E0,-3.959266663E-1,1.035087634E1
5.312150458E0,-9.277557220E0,-4.268673248E0,-6.203100586E-1,1.023129629E1
5.322189458E0,-9.201665039E0,-4.124822388E0,-8.933422852E-1,1.012338183E1
5.332228458E0,-9.102122040E0,-4.014202423E0,-1.110390930E0,1.000976597E1
5.342268458E0,-9.133107605E0,-3.939208374E0,-1.147214355E0,1.001234827E1
5.352307458E0,-9.224717102E0,-3.909270630E0,-1.038989410E0,1.007260152E1
5.362346458E0,-9.304052124E0,-3.897445221E0,-8.020321655E-1,1.011922530E1
5.372385458E0,-9.397308197E0,-3.885170746E0,-5.539979553E-1,1.018385324E1
5.382425458E0,-9.594148865E0,-3.932771759E0,-4.354444885E-1,1.037805367E1
5.392464458E0,-9.916428680E0,-4.021836548E0,-5.424719238E-1,1.071470965E1
5.402503458E0,-1.006147705E1,-4.109703827E0,-6.565347290E-1,1.088825164E1
5.412543458E0,-1.007644592E1,-4.188440094E0,-7.580236816E-1,1.093857362E1
5.422582458E0,-1.002704865E1,-4.276457062E0,-8.931925964E-1,1.093743949E1
5.432621458E0,-9.890083466E0,-4.339476013E0,-1.007854156E0,1.084714585E1
5.442660458E0,-9.870174866E0,-4.402944031E0,-1.005608826E0,1.085437779E1
5.452700458E0,-9.965376892E0,-4.552932129E0,-1.013692017E0,1.100297683E1
5.462739458E0,-1.018317398E1,-4.721930695E0,-1.026714935E0,1.127154849E1
5.472778458E0,-1.042162811E1,-4.886438599E0,-9.975256348E-1,1.155347013E1
5.482817458E0,-1.054871384E1,-4.976551208E0,-9.280700684E-1,1.170054441E1
5.492857458E0,-1.054512131E1,-4.988975372E0,-8.057743835E-1,1.169353373E1
5.502896458E0,-1.052431458E1,-4.980892181E0,-7.134164429E-1,1.166530956E1
5.512935458E0,-1.053284683E1,-5.005291443E0,-6.890171814E-1,1.168197541E1
5.522975458E0,-1.056338333E1,-5.075046387E0,-7.219487000E-1,1.174148088E1
5.533014458E0,-1.063478485E1,-5.194198608E0,-7.232958984E-1,1.185755055E1
5.543053458E0,-1.075468552E1,-5.346132660E0,-7.018904114E-1,1.203067102E1
5.553092458E0,-1.089314758E1,-5.485941925E0,-6.215075684E-1,1.221239103E1
5.563132458E0,-1.097248260E1,-5.545068970E0,-4.598437500E-1,1.230262658E1
5.573171458E0,-1.098161362E1,-5.500162354E0,-2.276765442E-1,1.228411414E1
5.583210458E0,-1.085722229E1,-5.272485809E0,5.358856201E-2,1.206984897E1
5.593249458E0,-1.062056442E1,-4.879103851E0,2.980302429E-1,1.169148686E1
5.603289458E0,-1.036160294E1,-4.453838196E0,4.326004028E-1,1.128656871E1
5.613328458E0,-1.019425095E1,-4.132157135E0,5.701643372E-1,1.101465216E1
5.623367458E0,-1.014245865E1,-4.021836548E0,6.331832886E-1,1.092911514E1
5.633406458E0,-1.010324020E1,-4.132755890E0,6.815327454E-1,1.093707551E1
5.643446458E0,-1.013796799E1,-4.367168427E0,8.312214661E-1,1.106984571E1
5.653485458E0,-1.014560211E1,-4.675826569E0,1.045575714E0,1.122006350E1
5.663524458E0,-1.008857071E1,-5.067561951E0,1.263971558E0,1.136032866E1
5.673564458E0,-1.001627106E1,-5.492827606E0,1.480720825E0,1.151908743E1
5.683603458E0,-9.984087982E0,-5.902525635E0,1.710642700E0,1.172382703E1
5.693642458E0,-9.963580627E0,-6.281088409E0,1.913021851E0,1.193250448E1
5.703681458E0,-9.863588562E0,-6.415808258E0,2.112257538E0,1.195468974E1
5.713721458E0,-9.664801941E0,-6.310876465E0,2.281106415E0,1.176601057E1
5.723760458E0,-9.416767731E0,-6.087690582E0,2.324815521E0,1.145164872E1
5.733799458E0,-9.134903870E0,-5.850733337E0,2.251917114E0,1.107920033E1
5.743838458E0,-8.879385223E0,-5.595364380E0,2.104623413E0,1.070425262E1
5.753878458E0,-8.825646973E0,-5.346881104E0,1.885030060E0,1.048973405E1
5.763917458E0,-8.982520752E0,-5.227130127E0,1.538650360E0,1.050599892E1
5.773956458E0,-9.256002045E0,-5.233566742E0,1.247056732E0,1.070602378E1
5.783996458E0,-9.565708008E0,-5.244194641E0,1.008602600E0,1.095543821E1
5.794035458E0,-9.783505096E0,-5.251529388E0,7.963439941E-1,1.113237156E1
5.804074458E0,-9.829758911E0,-5.253774719E0,6.159690857E-1,1.116269354E1
5.814113458E0,-9.741592255E0,-5.250032501E0,4.664300537E-1,1.107605606E1
5.824153458E0,-9.546847229E0,-5.222789154E0,4.171824646E-1,1.089008080E1
5.834192458E0,-9.389075317E0,-5.282365265E0,4.531077576E-1,1.078255187E1
5.844231458E0,-9.416767731E0,-5.540278931E0,5.301974487E-1,1.093852433E1
5.854270458E0,-9.574689331E0,-5.943839722E0,6.421646118E-1,1.128788208E1
5.864310458E0,-9.657916260E0,-6.328539734E0,8.077203369E-1,1.157489412E1
5.874349458E0,-9.593550110E0,-6.576873322E0,9.982740784E-1,1.167424591E1
5.884388458E0,-9.367819519E0,-6.716682587E0,1.113384705E0,1.158056531E1
5.894428458E0,-9.078321533E0,-6.796316986E0,1.188678131E0,1.140257875E1
5.904467458E0,-8.703950043E0,-6.809040527E0,1.229543152E0,1.111906271E1
5.914506458E0,-8.318651276E0,-6.836583252E0,1.329385529E0,1.084924401E1
5.924545458E0,-7.955955505E0,-6.849306793E0,1.555714874E0,1.061275084E1
5.934585458E0,-7.657326508E0,-6.871161346E0,1.771865387E0,1.043968459E1
5.944624458E0,-7.284451904E0,-6.861132202E0,1.867666168E0,1.017971274E1
5.954663458E0,-6.798262939E0,-6.687493286E0,1.933978271E0,9.730324630E0
5.964702458E0,-6.279741211E0,-6.404581604E0,2.033820648E0,9.197295343E0
5.974742458E0,-5.836662598E0,-6.125711517E0,2.098785553E0,8.717561165E0
5.984781458E0,-5.497917023E0,-5.877826996E0,2.114652557E0,8.321520127E0
5.994820458E0,-5.224286041E0,-5.651946716E0,2.155218201E0,7.992661122E0
6.004859458E0,-5.115462341E0,-5.503156128E0,2.232607269E0,7.838189686E0
6.014899458E0,-5.203778687E0,-5.505401459E0,2.259102173E0,7.905207174E0
6.024938458E0,-5.435347137E0,-5.659730530E0,2.175725555E0,8.143054087E0
6.034977458E0,-5.706732788E0,-5.903423767E0,2.020049286E0,8.455637788E0
6.045017458E0,-5.976471863E0,-6.169720001E0,1.821861420E0,8.780822277E0
6.055056458E0,-6.258036346E0,-6.455326080E0,1.555415497E0,9.124339488E0
6.065095458E0,-6.486760712E0,-6.714736633E0,1.199605408E0,9.413012574E0
6.075134458E0,-6.623426514E0,-6.833140411E0,8.342152405E-1,9.552879238E0
6.085173958E0,-6.712491302E0,-6.882388000E0,5.310955811E-1,9.628440507E0
6.095212958E0,-6.835535431E0,-6.901997223E0,2.312690735E-1,9.716768788E0
6.105251958E0,-7.077432404E0,-6.957980804E0,-9.430389404E-2,9.925343295E0
6.115290958E0,-7.418273621E0,-7.017706604E0,-4.266128540E-1,1.022061583E1
6.125330958E0,-7.749534760E0,-7.033423920E0,-7.261399841E-1,1.049054909E1
6.135369958E0,-7.946824493E0,-6.962770844E0,-9.514215088E-1,1.060836464E1
6.145408958E0,-8.073311462E0,-6.897506561E0,-1.089284821E0,1.067429137E1
6.155448958E0,-8.326285400E0,-6.935826874E0,-1.210233307E0,1.090400787E1
6.165487958E0,-8.607999573E0,-6.989714813E0,-1.329385529E0,1.116785726E1
6.175526958E0,-8.934770050E0,-7.143594818E0,-1.444795532E0,1.153032944E1
6.185565958E0,-9.238638153E0,-7.341333618E0,-1.516496429E0,1.189736843E1
6.195605958E0,-9.305998077E0,-7.483537903E0,-1.528172150E0,1.203911333E1
6.205644958E0,-9.258546753E0,-7.623496857E0,-1.490749969E0,1.208555865E1
6.215683958E0,-8.928782501E0,-7.564519501E0,-1.539997559E0,1.180324975E1
6.225722958E0,-8.211324463E0,-7.127129059E0,-1.418450317E0,1.096511830E1
6.235762958E0,-7.625742188E0,-6.446644135E0,-1.093775482E0,1.004527298E1
6.245801958E0,-7.346572723E0,-5.611081696E0,-7.418572998E-1,9.273980851E0
6.255840958E0,-7.019502869E0,-4.750221863E0,-3.888912964E-1,8.484648768E0
6.265880958E0,-6.821015625E0,-4.013154602E0,-1.622625732E-1,7.915680208E0
6.275919958E0,-6.815327454E0,-3.519331512E0,-2.695893860E-1,7.675093552E0
6.285958958E0,-6.935976563E0,-3.221151581E0,-6.390211487E-1,7.674108183E0
6.295997958E0,-7.161108398E0,-3.007695465E0,-9.466314697E-1,7.824564949E0
6.306037958E0,-7.417525177E0,-2.891387329E0,-1.078956299E0,8.033924765E0
6.316076958E0,-7.594606934E0,-2.922223206E0,-1.086889801E0,8.209675534E0
6.326115958E0,-7.715256042E0,-3.030448151E0,-9.457333374E-1,8.342853429E0
6.336154958E0,-7.927514648E0,-3.242706757E0,-7.291337585E-1,8.596061403E0
6.346194958E0,-8.270152130E0,-3.704496460E0,-5.891748047E-1,9.081070269E0
6.356233958E0,-8.640931091E0,-4.301754456E0,-5.087919617E-1,9.665901447E0
6.366272958E0,-8.985813904E0,-4.853956146E0,-4.436773682E-1,1.022265090E1
6.376312958E0,-9.322912903E0,-5.318290558E0,-2.808160400E-1,1.073684205E1
6.386351958E0,-9.643695831E0,-5.786816254E0,-1.047821045E-1,1.124718147E1
6.396390958E0,-9.950408020E0,-6.204447784E0,3.517684937E-2,1.172633913E1
6.406429958E0,-1.022493713E1,-6.479875031E0,1.417552185E-1,1.210612301E1
6.416469958E0,-1.026505371E1,-6.619235229E0,2.618055725E-1,1.221696136E1
6.426508958E0,-1.007315277E1,-6.694977722E0,3.260220337E-1,1.209948031E1
6.436547958E0,-9.644444275E0,-6.598278809E0,3.320095825E-1,1.169028738E1
6.446587958E0,-9.051227875E0,-6.332281952E0,3.308120728E-1,1.105133283E1
6.456626958E0,-8.490493927E0,-5.990841980E0,3.486250305E-1,1.039712528E1
6.466665958E0,-8.062683563E0,-5.698799286E0,3.311114502E-1,9.878907548E0
6.476704958E0,-7.827073517E0,-5.514532471E0,3.022215271E-1,9.579378167E0
6.486744958E0,-7.715854797E0,-5.458548889E0,3.073109436E-1,9.456458705E0
6.496783958E0,-7.653434601E0,-5.432802429E0,4.073030090E-1,9.394482379E0
6.506822958E0,-7.582781525E0,-5.392087097E0,5.563929749E-1,9.321091785E0
6.516861958E0,-7.511230316E0,-5.312153320E0,6.520440674E-1,9.222945041E0
6.526901958E0,-7.512427826E0,-5.245092773E0,6.334826660E-1,9.184164106E0
6.536940958E0,-7.634873199E0,-5.249882812E0,5.674699402E-1,9.283026470E0
6.546979958E0,-7.746990051E0,-5.266947327E0,4.198768616E-1,9.377253626E0
6.557018958E0,-7.810308380E0,-5.174140320E0,2.179467773E-1,9.371240358E0
6.567058958E0,-7.867190094E0,-4.988975372E0,-2.320175171E-2,9.315744391E0
6.577097958E0,-7.788753204E0,-4.759203186E0,-2.399510193E-1,9.130841579E0
6.587136958E0,-7.740104370E0,-4.604724426E0,-4.185296631E-1,9.015978581E0
6.597176958E0,-7.694149933E0,-4.508474579E0,-5.673202515E-1,8.935778561E0
6.607215958E0,-7.669750671E0,-4.368066559E0,-6.222560120E-1,8.848292681E0
6.617254958E0,-7.736960907E0,-4.274361420E0,-5.665718079E-1,8.857298303E0
6.627293958E0,-7.926317139E0,-4.261937256E0,-5.501060486E-1,9.016275795E0
6.637333958E0,-8.182584229E0,-4.300257568E0,-6.593788147E-1,9.267236925E0
6.647372958E0,-8.425229645E0,-4.321962433E0,-8.015830994E-1,9.502967395E0
6.657411958E0,-8.547824707E0,-4.325854340E0,-9.343569946E-1,9.625556918E0
6.667450958E0,-8.552315369E0,-4.358037415E0,-1.074016571E0,9.658576493E0
6.677490958E0,-8.466992798E0,-4.356690216E0,-1.131347351E0,9.589090859E0
6.687529958E0,-8.446485443E0,-4.380041656E0,-1.181493073E0,9.587690396E0
6.697568958E0,-8.563092957E0,-4.462370453E0,-1.269659729E0,9.739165615E0
6.707608958E0,-8.635991364E0,-4.574636993E0,-1.363514557E0,9.867462815E0
6.717647958E0,-8.601712646E0,-4.648134155E0,-1.407972107E0,9.878106956E0
6.727686958E0,-8.620274048E0,-4.714296570E0,-1.363065491E0,9.919257247E0
6.737725958E0,-8.625812531E0,-4.781656494E0,-1.308578796E0,9.948932561E0
6.747765958E0,-8.681047668E0,-4.884043579E0,-1.177301788E0,1.002998055E1
6.757804958E0,-8.857081604E0,-5.042414246E0,-9.842033386E-1,1.023926229E1
6.767843958E0,-9.079968109E0,-5.166206818E0,-7.694000244E-1,1.047508903E1
6.777882958E0,-9.335935822E0,-5.275180206E0,-5.831872559E-1,1.073905635E1
6.787922958E0,-9.541458435E0,-5.260211334E0,-4.894821167E-1,1.090636718E1
6.797961958E0,-9.722432098E0,-5.218448181E0,-4.667294312E-1,1.104426203E1
6.808000958E0,-9.932445374E0,-5.215155029E0,-5.099894714E-1,1.122993332E1
6.818040958E0,-1.002630020E1,-5.263354797E0,-5.984555054E-1,1.133965381E1
6.828079958E0,-1.005129822E1,-5.329367523E0,-6.471043396E-1,1.139515239E1
6.838118958E0,-1.010159363E1,-5.427563324E0,-6.483018494E-1,1.148568382E1
6.848157958E0,-1.023122406E1,-5.516927490E0,-5.899232483E-1,1.163883345E1
6.858197958E0,-1.029020142E1,-5.552553406E0,-4.212240601E-1,1.170027881E1
6.868236958E0,-1.026969406E1,-5.481900330E0,-1.936972046E-1,1.164282465E1
6.878275958E0,-1.013916550E1,-5.228477325E0,2.110610962E-2,1.140789628E1
6.888315958E0,-9.936037903E0,-4.884492645E0,2.145039368E-1,1.107380375E1
6.898354958E0,-9.720336456E0,-4.591701508E0,3.722758484E-1,1.075673058E1
6.908393958E0,-9.570647736E0,-4.401147766E0,4.692741394E-1,1.054455395E1
6.918432958E0,-9.640702057E0,-4.356390839E0,5.643264771E-1,1.059432592E1
6.928472958E0,-9.946516113E0,-4.543352051E0,6.493496704E-1,1.095430900E1
6.938511958E0,-1.037956558E1,-4.895868988E0,7.183561707E-1,1.149873691E1
6.948550958E0,-1.070439011E1,-5.236111450E0,8.515791321E-1,1.194679947E1
6.958589958E0,-1.091275681E1,-5.548062744E0,9.821076965E-1,1.228144115E1
6.968629958E0,-1.096709381E1,-5.815556488E0,1.038989410E0,1.245701983E1
6.978668958E0,-1.088850723E1,-6.067183228E0,1.127305756E0,1.251563504E1
6.988707958E0,-1.067969147E1,-6.275100861E0,1.220112762E0,1.244674157E1
6.998747958E0,-1.039184006E1,-6.370302887E0,1.388063507E0,1.226775525E1
7.008786958E0,-1.000878662E1,-6.358178101E0,1.641486511E0,1.197066065E1
7.018825958E0,-9.629625092E0,-6.213129730E0,1.935325470E0,1.162231238E1
7.028864958E0,-9.317075043E0,-6.072422333E0,2.226020966E0,1.134184155E1
7.038904958E0,-9.050329742E0,-5.908213806E0,2.405946808E0,1.107267081E1
7.048943958E0,-8.808283081E0,-5.729934540E0,2.511926422E0,1.080406289E1
7.058982958E0,-8.614286499E0,-5.553451538E0,2.451152802E0,1.053825915E1
7.069021958E0,-8.495134277E0,-5.391787720E0,2.217039642E0,1.030310371E1
7.079061958E0,-8.396938477E0,-5.274880829E0,1.842069397E0,1.008593889E1
7.089101167E0,-8.260272675E0,-5.180876312E0,1.434467010E0,9.855520262E0
7.099140167E0,-8.218060455E0,-5.129233704E0,1.150956573E0,9.755524438E0
7.109180167E0,-8.288713531E0,-5.163063354E0,9.550140381E-1,9.811831991E0
7.119219167E0,-8.505762177E0,-5.251828766E0,7.946974182E-1,1.002802272E1
7.129258167E0,-8.726852417E0,-5.372178497E0,6.474037170E-1,1.026827086E1
7.139297167E0,-8.784183197E0,-5.472020874E0,5.376818848E-1,1.036310710E1
7.149337167E0,-8.734187164E0,-5.536836090E0,4.760101318E-1,1.035225410E1
7.159376167E0,-8.591982880E0,-5.580395508E0,4.204756165E-1,1.025376924E1
7.169415167E0,-8.404273224E0,-5.676944733E0,3.534150696E-1,1.014812358E1
7.179454167E0,-8.250991974E0,-5.771847382E0,3.725752258E-1,1.007630404E1
7.189494167E0,-8.159831543E0,-5.916296997E0,4.549040222E-1,1.008921992E1
7.199533167E0,-8.196654968E0,-6.179000702E0,6.012995911E-1,1.028235204E1
7.209572167E0,-8.286318512E0,-6.450086975E0,7.691006470E-1,1.052892265E1
7.219612167E0,-8.268804932E0,-6.627617798E0,8.705895996E-1,1.063279732E1
7.229651167E0,-8.103249207E0,-6.668482819E0,9.342073059E-1,1.053584615E1
7.239690167E0,-7.911048889E0,-6.619983673E0,1.115929413E0,1.037565308E1
7.249729167E0,-7.635771332E0,-6.583160248E0,1.317260742E0,1.016750601E1
7.259769167E0,-7.279063110E0,-6.530170441E0,1.439257050E0,9.884297982E0
7.269808167E0,-6.979086914E0,-6.423143005E0,1.571731567E0,9.614299784E0
7.279847167E0,-6.824009399E0,-6.349047089E0,1.644480286E0,9.464767225E0
7.289886167E0,-6.712640991E0,-6.310277710E0,1.685794373E0,9.365951982E0
7.299926167E0,-6.680158539E0,-6.319857788E0,1.681902466E0,9.348471344E0
7.309965167E0,-6.658603363E0,-6.329737244E0,1.677860870E0,9.339046494E0
7.320004167E0,-6.631809082E0,-6.255641327E0,1.684596863E0,9.271019723E0
7.330044167E0,-6.646927643E0,-6.198160858E0,1.645977173E0,9.236237652E0
7.340083167E0,-6.793472900E0,-6.252348175E0,1.513053589E0,9.355878522E0
7.350122167E0,-6.941964111E0,-6.285279694E0,1.350491638E0,9.461471039E0
7.360161167E0,-6.956633606E0,-6.200106812E0,1.197210388E0,9.395178993E0
7.370201167E0,-6.875053253E0,-6.111191711E0,1.065184937E0,9.260002177E0
7.380240167E0,-6.872658234E0,-6.090534668E0,9.153465271E-1,9.228537425E0
7.390279167E0,-6.889722748E0,-6.197711792E0,7.367678833E-1,9.296383055E0
7.400319167E0,-7.007527771E0,-6.360423431E0,5.794450378E-1,9.481360042E0
7.410358167E0,-7.239844666E0,-6.593937836E0,4.463717651E-1,9.802786069E0
7.420397167E0,-7.497908020E0,-6.765780487E0,3.022215271E-1,1.010374921E1
7.430436167E0,-7.723638611E0,-6.883435822E0,1.926493835E-1,1.034762755E1
7.440476167E0,-7.993677063E0,-7.059320068E0,3.293151855E-2,1.066461238E1
7.450515167E0,-8.281079407E0,-7.255561981E0,-2.639012146E-1,1.101313305E1
7.460554167E0,-8.549920349E0,-7.471263428E0,-6.265969849E-1,1.137161110E1
7.470593167E0,-8.848249969E0,-7.725734253E0,-1.028810577E0,1.179139298E1
7.480633167E0,-9.118438110E0,-7.921227722E0,-1.423988800E0,1.216221634E1
7.490672167E0,-9.247170410E0,-7.955656128E0,-1.673669586E0,1.231274928E1
7.500711167E0,-9.357191620E0,-7.921078033E0,-1.768871613E0,1.238666295E1
7.510751167E0,-9.312285004E0,-7.719447327E0,-1.736389160E0,1.221980222E1
7.520790167E0,-8.821306000E0,-7.207960968E0,-1.488953705E0,1.148856492E1
7.530829167E0,-8.145012360E0,-6.422843628E0,-1.074315948E0,1.042824536E1
7.540868167E0,-7.501799927E0,-5.448669434E0,-6.092330933E-1,9.291725658E0
7.550908167E0,-6.941814423E0,-4.431684265E0,-1.992356873E-1,8.238222367E0
7.560947167E0,-6.664141846E0,-3.614982605E0,4.400848389E-2,7.581610813E0
7.570986167E0,-6.673422546E0,-3.065924377E0,-1.691482544E-2,7.344027974E0
7.581025167E0,-6.752158813E0,-2.765050049E0,-3.067121887E-1,7.302822932E0
7.591065167E0,-7.003486176E0,-2.662064209E0,-5.656736755E-1,7.513680268E0
7.601104167E0,-7.463629303E0,-2.806364136E0,-8.313711548E-1,8.017020646E0
7.611143167E0,-7.966433716E0,-3.147504730E0,-1.168470154E0,8.645008657E0
7.621183167E0,-8.333769836E0,-3.540737000E0,-1.337917786E0,9.153062995E0
7.631222167E0,-8.676257629E0,-4.053720245E0,-1.295106812E0,9.663715431E0
7.641261167E0,-8.869056702E0,-4.664899292E0,-1.202449493E0,1.009293500E1
7.651300167E0,-8.829089813E0,-5.208419037E0,-1.025816803E0,1.030207532E1
7.661340167E0,-8.616082764E0,-5.645360413E0,-7.930508423E-1,1.033130708E1
7.671379167E0,-8.388406219E0,-5.989794159E0,-5.918692017E-1,1.032440323E1
7.681418167E0,-8.211923218E0,-6.217770081E0,-3.917353821E-1,1.030775457E1
7.691457167E0,-8.054450684E0,-6.399641876E0,-9.041198730E-2,1.028774836E1
7.701497167E0,-7.853269043E0,-6.515500946E0,2.103126526E-1,1.020636168E1
7.711536167E0,-7.641609192E0,-6.527775421E0,5.345384216E-1,1.006438147E1
7.721575167E0,-7.406597900E0,-6.415059814E0,8.297245789E-1,9.833571465E0
7.731615167E0,-7.226971436E0,-6.253096619E0,1.060394897E0,9.615340389E0
7.741654167E0,-7.102729797E0,-6.092929688E0,1.254690857E0,9.441758941E0
7.751693167E0,-7.027436371E0,-5.925577698E0,1.447489929E0,9.305512350E0
7.761732167E0,-7.049290924E0,-5.784121857E0,1.614991608E0,9.260494915E0
7.771772167E0,-7.174580383E0,-5.671106873E0,1.596729584E0,9.283620102E0
7.781811167E0,-7.489824829E0,-5.498066711E0,1.347198486E0,9.388352214E0
7.791850167E0,-7.580087128E0,-5.213059387E0,1.078058167E0,9.262608620E0
7.801890167E0,-7.532037048E0,-5.052293701E0,7.842192078E-1,9.103419880E0
7.811929167E0,-7.424261169E0,-4.971910858E0,5.164260864E-1,8.950209349E0
7.821968167E0,-7.253166962E0,-4.919819183E0,2.980302429E-1,8.769371346E0
7.832007167E0,-7.066056061E0,-4.863536224E0,9.116043091E-2,8.578545511E0
7.842047167E0,-7.017556915E0,-4.870870972E0,-1.808239746E-1,8.544248732E0
7.852086167E0,-7.057523804E0,-4.974455566E0,-3.683839417E-1,8.642312026E0
7.862125167E0,-7.185956726E0,-5.134921875E0,-2.871029663E-1,8.836731570E0
7.872165167E0,-7.362739105E0,-5.210065613E0,-2.450404358E-1,9.023012559E0
7.882204167E0,-7.629783783E0,-5.189857635E0,-2.903961182E-1,9.232147787E0
7.892243167E0,-8.063132629E0,-5.241200867E0,-2.273771667E-1,9.619563124E0
7.902282167E0,-8.288713531E0,-5.256469116E0,-2.209405518E-1,9.817436239E0
7.912322167E0,-8.408763885E0,-5.094056854E0,-3.020718384E-1,9.836054733E0
7.922361167E0,-8.372389526E0,-4.819677429E0,-4.971162415E-1,9.673330422E0
7.932400167E0,-8.260272675E0,-4.538711700E0,-7.198530579E-1,9.452523313E0
7.942439167E0,-8.183781738E0,-4.266876984E0,-8.181985474E-1,9.265525975E0
7.952479167E0,-8.092022552E0,-3.985162811E0,-8.948391724E-1,9.064385736E0
7.962518167E0,-8.090974731E0,-3.724105682E0,-9.413923645E-1,8.956509076E0
7.972557167E0,-8.290659485E0,-3.566483459E0,-1.003812561E0,9.080885343E0
7.982597167E0,-8.648565216E0,-3.594026184E0,-1.025517426E0,9.421591718E0
7.992636167E0,-9.161398773E0,-3.802243195E0,-9.532177734E-1,9.964783235E0
8.002675167E0,-9.840686188E0,-4.119882660E0,-9.168434143E-1,1.070762063E1
8.012714167E0,-1.045336212E1,-4.374802551E0,-9.518705750E-1,1.137179557E1
8.022754167E0,-1.087877747E1,-4.489913177E0,-1.032702484E0,1.181412688E1
8.032793167E0,-1.094014984E1,-4.486919403E0,-1.148112488E0,1.188012991E1
8.042832167E0,-1.064137115E1,-4.391567688E0,-1.182241516E0,1.157248209E1
8.052872167E0,-1.026819717E1,-4.234244843E0,-1.192719727E0,1.117082284E1
8.062911167E0,-9.918674011E0,-4.066743164E0,-1.272354126E0,1.079524799E1
8.072950167E0,-9.710606689E0,-3.974385223E0,-1.284628601E0,1.057080370E1
8.082989167E0,-9.754016418E0,-3.997287598E0,-1.231339417E0,1.061297984E1
8.093028833E0,-1.010458740E1,-4.174818420E0,-1.041683807E0,1.098257258E1
8.103067833E0,-1.062819855E1,-4.523443451E0,-7.384144592E-1,1.157434235E1
8.113106833E0,-1.113848740E1,-4.972659302E0,-4.093986511E-1,1.220495183E1
8.123145833E0,-1.155372391E1,-5.418731689E0,-1.103205872E-1,1.276179297E1
8.133185833E0,-1.200907700E1,-5.808221741E0,7.379653931E-2,1.334012054E1
8.143224833E0,-1.246008911E1,-6.138135681E0,2.031275940E-1,1.389142869E1
8.153263833E0,-1.273177414E1,-6.392307129E0,3.725752258E-1,1.425126224E1
8.163303833E0,-1.281335449E1,-6.481521606E0,6.084846497E-1,1.437227989E1
8.173342833E0,-1.268896317E1,-6.380032654E0,9.550140381E-1,1.423469897E1
8.183381833E0,-1.241982285E1,-6.132896576E0,1.345102844E0,1.391667064E1
8.193420833E0,-1.193288544E1,-5.777685242E0,1.619482269E0,1.335657607E1
8.203460833E0,-1.134550690E1,-5.303171997E0,1.807341614E0,1.265348346E1
8.213499833E0,-1.083851120E1,-4.906646576E0,1.897154846E0,1.204772602E1
8.223538833E0,-1.049287994E1,-4.694687347E0,1.923350372E0,1.165503734E1
8.233578833E0,-1.029529083E1,-4.719835052E0,1.936073914E0,1.148991899E1
8.243617833E0,-1.020951920E1,-4.886438599E0,2.038610687E0,1.150076075E1
8.253656833E0,-1.008632538E1,-5.069807281E0,2.251468048E0,1.151112566E1
8.263695833E0,-9.889933777E0,-5.263354797E0,2.527344360E0,1.148482317E1
8.273735833E0,-9.699679413E0,-5.461392975E0,2.803520050E0,1.147912534E1
8.283774833E0,-9.524992676E0,-5.659281464E0,2.978356476E0,1.147273112E1
8.293813833E0,-9.281000061E0,-5.803731079E0,3.099454651E0,1.137659333E1
8.303852833E0,-9.043893127E0,-5.866151276E0,3.220253448E0,1.125050070E1
8.313892833E0,-8.825048218E0,-5.903723145E0,3.318000183E0,1.112405269E1
8.323931833E0,-8.631051636E0,-5.994135132E0,3.347937927E0,1.102875318E1
8.333970833E0,-8.453071747E0,-6.074817352E0,3.400029602E0,1.095070907E1
8.344010833E0,-8.324489136E0,-6.083798676E0,3.426225128E0,1.086502390E1
8.354049833E0,-8.293054504E0,-6.149661713E0,3.356320496E0,1.085624150E1
8.364088833E0,-8.206684113E0,-6.232289886E0,3.175197144E0,1.078299486E1
8.374127833E0,-8.130043488E0,-6.281537476E0,3.007845154E0,1.070525351E1
8.384167833E0,-8.043523407E0,-6.284980316E0,2.829715576E0,1.059275869E1
8.394206833E0,-7.938741302E0,-6.300398254E0,2.655178528E0,1.047705133E1
8.404245833E0,-8.018675079E0,-6.431675262E0,2.530787201E0,1.058633461E1
8.414285833E0,-8.173602905E0,-6.689139862E0,2.411185913E0,1.083356793E1
8.424324833E0,-8.416547699E0,-7.061864777E0,2.317181396E0,1.122842549E1
8.434363833E0,-8.775351563E0,-7.563621368E0,2.204914856E0,1.179308326E1
8.444402833E0,-8.976682892E0,-8.004754028E0,1.955234070E0,1.218523135E1
8.454442833E0,-8.829389191E0,-8.118667145E0,1.778152313E0,1.212570391E1
8.464481833E0,-8.465196533E0,-7.949518890E0,1.776505737E0,1.174778173E1
8.474520833E0,-8.005502472E0,-7.702532501E0,1.913919983E0,1.127298392E1
8.484559833E0,-7.657775574E0,-7.510481873E0,2.152074738E0,1.093984874E1
8.494599833E0,-7.475305023E0,-7.427254944E0,2.360291748E0,1.079885542E1
8.504638833E0,-7.399412842E0,-7.419620819E0,2.441423035E0,1.075930434E1
8.514677833E0,-7.436086578E0,-7.544461212E0,2.477947083E0,1.087908545E1
8.524717833E0,-7.603737946E0,-7.742649078E0,2.476450195E0,1.113095913E1
8.534756833E0,-7.798183594E0,-7.999814301E0,2.297721863E0,1.140562238E1
8.544795833E0,-7.754773865E0,-8.069718933E0,2.028282166E0,1.137412897E1
8.554834833E0,-7.448211365E0,-7.833210754E0,1.839225311E0,1.096438749E1
8.564874833E0,-7.091503143E0,-7.491621094E0,1.734592896E0,1.046052656E1
8.574913833E0,-6.851402435E0,-7.214846649E0,1.650318146E0,1.008559753E1
8.584952833E0,-6.901398468E0,-7.166197815E0,1.604663086E0,1.007763045E1
8.594992833E0,-7.172933807E0,-7.168143768E0,1.591191101E0,1.026475297E1
8.605031833E0,-7.278015289E0,-7.001839600E0,1.719025269E0,1.024452596E1
8.615070833E0,-7.274871826E0,-6.834188232E0,1.952240295E0,1.017060131E1
8.625109833E0,-7.226672058E0,-6.788533173E0,2.082319794E0,1.013138823E1
8.635149833E0,-7.323820038E0,-6.817423096E0,2.032473450E0,1.021011978E1
8.645188833E0,-7.550598450E0,-6.837331696E0,1.839225311E0,1.035100920E1
8.655227833E0,-7.607779541E0,-6.842870178E0,1.605261841E0,1.035760819E1
8.665267833E0,-7.605534210E0,-6.871909790E0,1.312321014E0,1.033389961E1
8.675306833E0,-7.419321442E0,-6.800807648E0,9.780661011E-1,1.011206846E1
8.685345833E0,-7.108867035E0,-6.687044220E0,6.465055847E-1,9.781130834E0
8.695384833E0,-7.009922791E0,-6.700067139E0,3.044668579E-1,9.701681156E0
8.705424833E0,-7.189399567E0,-6.882388000E0,-8.457412720E-2,9.952983648E0
8.715463833E0,-7.504793701E0,-7.151378632E0,-4.722679138E-1,1.037724346E1
8.725502833E0,-7.896229706E0,-7.400760040E0,-8.433462524E-1,1.085508755E1
8.735542833E0,-8.175997925E0,-7.474257202E0,-1.062041473E0,1.112831501E1
8.745581833E0,-8.056246948E0,-7.213349762E0,-1.029109955E0,1.086253179E1
8.755620833E0,-7.649542694E0,-6.642886047E0,-6.978488159E-1,1.015531543E1
8.765659833E0,-7.088209991E0,-5.811963959E0,-1.419049072E-1,9.167430553E0
8.775699833E0,-6.639143829E0,-4.939278717E0,4.233197021E-1,8.285765179E0
8.785738833E0,-6.364315338E0,-4.164789276E0,7.574249268E-1,7.643537921E0
8.795777833E0,-6.253246307E0,-3.477718048E0,9.509724426E-1,7.218168798E0
8.805817833E0,-6.294710083E0,-2.987637177E0,9.388476562E-1,7.030703084E0
8.815856833E0,-6.459217987E0,-2.798280945E0,8.517288208E-1,7.090649846E0
8.825895833E0,-6.785988464E0,-2.809357910E0,7.062313843E-1,7.378407286E0
8.835934833E0,-7.142996063E0,-2.975662079E0,6.228547668E-1,7.763047445E0
8.845974833E0,-7.410040741E0,-3.267255707E0,6.527925110E-1,8.124641635E0
8.856013833E0,-7.503147125E0,-3.775299225E0,6.794371033E-1,8.426846136E0
8.866052833E0,-7.419022064E0,-4.320465546E0,7.126679993E-1,8.614882855E0
8.876091833E0,-7.347171478E0,-4.782704315E0,8.086184692E-1,8.803922599E0
8.886131833E0,-7.330106964E0,-5.249733124E0,9.023236084E-1,9.061145285E0
8.896170833E0,-7.416028290E0,-5.757327576E0,9.134005737E-1,9.432846708E0
8.906209833E0,-7.517068176E0,-6.209387512E0,9.280700684E-1,9.794086037E0
8.916249833E0,-7.629334717E0,-6.520889740E0,9.397457886E-1,1.008027149E1
8.926288833E0,-7.882907410E0,-6.735543365E0,8.565188599E-1,1.040391264E1
8.936327833E0,-8.062533875E0,-6.781048737E0,7.134164429E-1,1.055916841E1
8.946366833E0,-8.118218079E0,-6.729256439E0,6.001020813E-1,1.056165136E1
8.956406833E0,-8.101303253E0,-6.597530365E0,4.170327759E-1,1.045621526E1
8.966445833E0,-8.030201111E0,-6.369404755E0,1.764830017E-1,1.025107765E1
8.976484833E0,-8.024962006E0,-6.098168793E0,7.484436035E-4,1.007907131E1
8.986524833E0,-8.006699982E0,-5.835465088E0,-1.308279419E-1,9.908431427E0
8.996563833E0,-7.990533600E0,-5.654940491E0,-2.189945984E-1,9.791574837E0
9.006602833E0,-8.133186951E0,-5.592220917E0,-3.460803223E-1,9.876306817E0
9.016641833E0,-8.286617889E0,-5.535039825E0,-4.998106384E-1,9.977700767E0
9.026681833E0,-8.347840576E0,-5.481301575E0,-5.644761658E-1,1.000248682E1
9.036720833E0,-8.337062988E0,-5.451962585E0,-5.357359314E-1,9.975847247E0
9.046759833E0,-8.468339996E0,-5.391338654E0,-5.659730530E-1,1.005483169E1
9.056799833E0,-8.697663116E0,-5.351072388E0,-7.307803345E-1,1.023803493E1
9.066838833E0,-8.921597443E0,-5.393284607E0,-9.976753235E-1,1.047271578E1
9.076877833E0,-9.209299164E0,-5.403762817E0,-1.263073425E0,1.075207878E1
9.086916833E0,-9.447453918E0,-5.328170013E0,-1.524429932E0,1.095297530E1
9.096956417E0,-9.506131897E0,-5.106181641E0,-1.808988190E0,1.094130124E1
9.106995417E0,-9.389524384E0,-4.818479919E0,-2.061363373E0,1.075314539E1
9.117034417E0,-9.224417725E0,-4.522245941E0,-2.221230927E0,1.051068302E1
9.127074417E0,-9.051227875E0,-4.256099396E0,-2.264341278E0,1.025506458E1
9.137113417E0,-8.927135925E0,-3.989653473E0,-2.256108398E0,1.003499456E1
9.147152417E0,-8.873547363E0,-3.735931091E0,-2.228415985E0,9.882452212E0
9.157191417E0,-8.962312775E0,-3.534150696E0,-2.091450806E0,9.858368926E0
9.167231417E0,-9.251661072E0,-3.462300110E0,-1.921853485E0,1.006351208E1
9.177270417E0,-9.579778748E0,-3.429218903E0,-1.752854919E0,1.032493116E1
9.187309417E0,-9.889185333E0,-3.304677887E0,-1.617985382E0,1.055152876E1
9.197349417E0,-1.028316605E1,-3.176095276E0,-1.611249390E0,1.088242665E1
9.207388417E0,-1.060020676E1,-3.111280060E0,-1.682501221E0,1.117475983E1
9.217427417E0,-1.091036179E1,-3.092419281E0,-1.699565735E0,1.146680317E1
9.227466417E0,-1.121393051E1,-3.071911926E0,-1.665736084E0,1.174578891E1
9.237506417E0,-1.120794296E1,-3.002306671E0,-1.505269775E0,1.170032768E1
9.247545417E0,-1.090617050E1,-2.882106628E0,-1.268312531E0,1.135163910E1
9.257584417E0,-1.053464310E1,-2.924318848E0,-1.037642212E0,1.098212399E1
9.267623417E0,-1.020502853E1,-3.112477570E0,-7.141648865E-1,1.069299563E1
9.277663417E0,-1.001567230E1,-3.399281158E0,-1.692979431E-1,1.057815985E1
9.287702417E0,-9.940229187E0,-3.818259888E0,4.312532043E-1,1.065707484E1
9.297741417E0,-1.009515701E1,-4.314328308E0,9.785151672E-1,1.102193793E1
9.307781417E0,-1.051069290E1,-4.846322021E0,1.422940979E0,1.166131482E1
9.317820417E0,-1.119641693E1,-5.379513245E0,1.735041962E0,1.254229985E1
9.327859417E0,-1.171763306E1,-5.784570923E0,2.111359406E0,1.323714560E1
9.337898417E0,-1.194860275E1,-6.085145874E0,2.402653656E0,1.362243931E1
9.347938417E0,-1.194785431E1,-6.196514282E0,2.588716736E0,1.370581870E1
9.357977417E0,-1.172227341E1,-6.060297546E0,2.835703125E0,1.349741132E1
9.368016417E0,-1.149160309E1,-5.743556213E0,3.015030212E0,1.319605194E1
9.378056417E0,-1.152019363E1,-5.441334686E0,3.083737335E0,1.310848658E1
9.388095417E0,-1.156584869E1,-5.168452148E0,3.098706207E0,1.304161546E1
9.398134417E0,-1.155986115E1,-4.922064514E0,3.011886749E0,1.292008400E1
9.408173417E0,-1.147977768E1,-4.635859680E0,2.837499390E0,1.270149178E1
9.418213417E0,-1.119013000E1,-4.279750214E0,2.656525726E0,1.227160953E1
9.428252417E0,-1.090212891E1,-3.949836273E0,2.492616577E0,1.186047042E1
9.438291417E0,-1.054437286E1,-3.677702179E0,2.404449921E0,1.142325137E1
9.448331417E0,-1.011970596E1,-3.448828125E0,2.427501984E0,1.096337677E1
9.458370417E0,-9.955796814E0,-3.462599487E0,2.403551788E0,1.081131567E1
9.468409417E0,-9.959389343E0,-3.767515411E0,2.282603302E0,1.089008202E1
9.478448417E0,-9.829010468E0,-4.078418884E0,2.169738007E0,1.086051152E1
9.488488417E0,-9.703122253E0,-4.286935272E0,2.183209991E0,1.083027245E1
9.498527417E0,-9.643695831E0,-4.490511932E0,2.249971161E0,1.087326708E1
9.508566417E0,-9.514664154E0,-4.707560577E0,2.248923340E0,1.085115739E1
9.518606417E0,-9.378447418E0,-4.922513580E0,2.229164429E0,1.082384359E1
9.528645417E0,-9.309740295E0,-5.064717865E0,2.274071045E0,1.083946634E1
9.538684417E0,-9.213041382E0,-5.122797089E0,2.336491241E0,1.079733175E1
9.548723417E0,-9.201515350E0,-5.159620514E0,2.277064819E0,1.079233954E1
9.558763417E0,-9.321865082E0,-5.173541565E0,2.120041351E0,1.087001731E1
9.568802417E0,-9.395212555E0,-5.140310669E0,1.834285583E0,1.086542297E1
9.578841417E0,-9.567354584E0,-5.169350281E0,1.413959656E0,1.096611773E1
9.588881417E0,-9.671837311E0,-5.240901489E0,1.131646729E0,1.105857630E1
9.598920417E0,-9.538913727E0,-5.213807831E0,1.078058167E0,1.092414192E1
9.608959417E0,-9.121132507E0,-5.024152222E0,9.340576172E-1,1.045512446E1
9.618998417E0,-8.612340546E0,-4.735552368E0,7.158114624E-1,9.854453407E0
9.629038417E0,-8.186326447E0,-4.448299713E0,6.056405640E-1,9.336493535E0
9.639077417E0,-7.979306946E0,-4.188290405E0,7.291337585E-1,9.041169830E0
9.649116417E0,-7.819738770E0,-4.007167053E0,9.882449341E-1,8.842077260E0
9.659156417E0,-7.598498840E0,-3.958518219E0,1.198108521E0,8.651156867E0
9.669195417E0,-7.555837555E0,-4.136348419E0,1.362766113E0,8.721077392E0
9.679234417E0,-7.671247559E0,-4.434528351E0,1.413211212E0,8.972750232E0
9.689273417E0,-7.683072968E0,-4.647535400E0,1.336121521E0,9.078238609E0
9.699313417E0,-7.652536469E0,-4.745880890E0,1.222807159E0,9.087351494E0
9.709352417E0,-7.646698608E0,-4.835694122E0,1.083746338E0,9.112104223E0
9.719391417E0,-7.459438019E0,-4.870122528E0,9.960287476E-1,8.964004812E0
9.729431417E0,-7.272776184E0,-4.844675446E0,1.025667114E0,8.798644590E0
9.739470417E0,-7.258106689E0,-4.850513306E0,1.067579956E0,8.794732458E0
9.749509417E0,-7.289990387E0,-4.895270233E0,1.130598907E0,8.853580315E0
9.759548417E0,-7.393125916E0,-5.020859070E0,1.268162842E0,9.026382088E0
9.769588417E0,-7.456593933E0,-5.096002808E0,1.497785339E0,9.154965790E0
9.779627417E0,-7.510781250E0,-5.152884521E0,1.755249939E0,9.276042056E0
9.789666417E0,-7.600893860E0,-5.208568726E0,1.947749634E0,9.417882154E0
9.799706417E0,-7.559729462E0,-5.182822266E0,2.011067963E0,9.383791905E0
9.809745417E0,-7.648494873E0,-5.107678528E0,1.926793213E0,9.396828500E0
9.819784417E0,-7.883356476E0,-4.963977356E0,1.578018494E0,9.448731284E0
9.829823417E0,-7.852370911E0,-4.829556885E0,1.182989960E0,9.294289315E0
9.839863417E0,-7.783514099E0,-4.909939728E0,8.779243469E-1,9.244530871E0
9.849902417E0,-7.771838379E0,-5.210364990E0,6.444099426E-1,9.378946598E0
9.859941417E0,-7.824828186E0,-5.641767883E0,5.510041809E-1,9.662354092E0
9.869981417E0,-7.842341766E0,-6.034102020E0,5.472619629E-1,9.910207224E0
9.880020417E0,-7.823780365E0,-6.220165100E0,5.710624695E-1,1.001139877E1
9.890059417E0,-7.838000793E0,-6.185886383E0,5.228627014E-1,9.998641517E0
9.900098417E0,-7.717052307E0,-5.961502991E0,4.653822327E-1,9.762632577E0
9.910138417E0,-7.757168884E0,-5.652545471E0,3.300636292E-1,9.603847219E0
9.920177417E0,-8.142317963E0,-5.557193756E0,7.933502197E-3,9.857981902E0
9.930216417E0,-8.640332336E0,-5.752387848E0,-4.101470947E-1,1.038814370E1
9.940256417E0,-9.054371338E0,-6.097719727E0,-7.523355103E-1,1.094211291E1
9.950295417E0,-9.337133331E0,-6.518494720E0,-9.955796814E-1,1.143083598E1
9.960334417E0,-9.592502289E0,-6.947652283E0,-1.126108246E0,1.189765070E1
9.970373417E0,-9.592502289E0,-7.259304199E0,-1.175804901E0,1.208702258E1
9.980413417E0,-9.175170135E0,-7.414681091E0,-1.154549103E0,1.185302604E1
9.990452417E0,-8.461903381E0,-7.154971161E0,-9.702822876E-1,1.112379741E1
1.000049142E1,-7.717651062E0,-6.581363983E0,-5.995033264E-1,1.016050658E1
1.001053142E1,-7.198979645E0,-5.925428009E0,-1.348695374E-1,9.324923314E0
1.002057042E1,-6.853647766E0,-5.349874878E0,2.921923828E-1,8.699369247E0
1.003060942E1,-6.682254181E0,-4.902006226E0,6.078858948E-1,8.309735931E0
1.004064842E1,-6.814429321E0,-4.564308472E0,7.828720093E-1,8.239068356E0
1.005068842E1,-7.315437469E0,-4.342469788E0,8.279283142E-1,8.547405134E0
1.006072742E1,-8.018675079E0,-4.314178619E0,7.140151978E-1,9.133515473E0
1.007076642E1,-8.481811981E0,-4.390519867E0,5.516029358E-1,9.566716521E0
1.008080642E1,-8.603209534E0,-4.459825745E0,4.966671753E-1,9.703192167E0
1.009084617E1,-8.549770660E0,-4.543202362E0,4.466711426E-1,9.692202080E0
1.010088517E1,-8.404722290E0,-4.735252991E0,3.073109436E-1,9.651757232E0
1.011092417E1,-8.167315979E0,-5.035528564E0,1.493893433E-1,9.596036442E0
1.012096417E1,-8.056995392E0,-5.343438263E0,6.271957397E-2,9.668062937E0
1.013100317E1,-8.096662903E0,-5.620212708E0,2.095642090E-2,9.856123995E0
1.014104217E1,-8.134384460E0,-5.902076569E0,3.727249146E-2,1.005007998E1
1.015108217E1,-8.116870880E0,-6.073769531E0,5.448669434E-2,1.013791093E1
1.016112117E1,-8.038733368E0,-6.062991943E0,1.267863464E-1,1.006961669E1
1.017116017E1,-7.984546051E0,-5.928421783E0,2.538720703E-1,9.948045613E0
1.018119917E1,-7.808212738E0,-5.676046600E0,4.224215698E-1,9.662511638E0
1.019123917E1,-7.609276428E0,-5.380561066E0,6.303392029E-1,9.340709430E0
1.020127817E1,-7.601342926E0,-5.173092499E0,7.557783508E-1,9.225643674E0
1.021131717E1,-7.730524292E0,-5.032085724E0,8.174501038E-1,9.260189913E0
1.022135717E1,-8.010442200E0,-5.017116852E0,8.431965637E-1,9.489448150E0
1.023139617E1,-8.372838593E0,-5.075345764E0,8.198451233E-1,9.825258610E0
1.024143517E1,-8.708889771E0,-5.179379425E0,8.014334106E-1,1.016430164E1
1.025147417E1,-8.985664215E0,-5.248685303E0,8.539741516E-1,1.044127055E1
1.026151417E1,-9.255103912E0,-5.225034485E0,9.391470337E-1,1.066957970E1
1.027155317E1,-9.447603607E0,-5.058281250E0,1.012344818E0,1.076421224E1
1.028159217E1,-9.641600189E0,-4.862638092E0,9.874964905E-1,1.084347051E1
1.029163217E1,-9.878557434E0,-4.687801666E0,7.128176880E-1,1.095762248E1
1.030167117E1,-1.028720764E1,-4.499193878E0,3.032693481E-1,1.123215736E1
1.031171017E1,-1.066981201E1,-4.280348969E0,-1.947450256E-1,1.149800858E1
1.032174917E1,-1.110196335E1,-4.086651764E0,-5.831872559E-1,1.184459456E1
1.033178917E1,-1.160521683E1,-3.906276855E0,-8.583151245E-1,1.227504629E1
1.034182817E1,-1.207179657E1,-3.722758484E0,-9.380992126E-1,1.266756619E1
1.035186717E1,-1.234931946E1,-3.557801514E0,-6.668632507E-1,1.286889076E1
1.036190717E1,-1.232057922E1,-3.427123260E0,-1.802252197E-1,1.278961795E1
1.037194617E1,-1.206880280E1,-3.342698822E0,3.097059631E-1,1.252699302E1
1.038198517E1,-1.174128387E1,-3.296594696E0,6.647676086E-1,1.221340246E1
1.039202417E1,-1.140029297E1,-3.246898041E0,8.538244629E-1,1.188436127E1
1.040206417E1,-1.105705673E1,-3.196452942E0,1.016685791E0,1.155462959E1
1.041210317E1,-1.091649902E1,-3.084785156E0,1.078806610E0,1.139516012E1
1.042214217E1,-1.091096054E1,-2.957400055E0,1.059047699E0,1.135415594E1
1.043218217E1,-1.087518494E1,-2.874472504E0,1.074315948E0,1.129984046E1
1.044222117E1,-1.092652817E1,-2.873574371E0,1.134790192E0,1.135491947E1
1.045226017E1,-1.101334763E1,-2.878214722E0,1.120869141E0,1.143828193E1
1.046230017E1,-1.099942657E1,-2.894530792E0,1.087787933E0,1.142580308E1
1.047233917E1,-1.108280319E1,-2.954705658E0,1.004561005E0,1.151381583E1
1.048237817E1,-1.125599304E1,-2.996019745E0,8.342152405E-1,1.167773217E1
1.049241717E1,-1.137364838E1,-3.058589630E0,7.132667542E-1,1.179930495E1
1.050245717E1,-1.144699585E1,-3.192411346E0,7.424560547E-1,1.190699144E1
1.051249617E1,-1.159758270E1,-3.455264740E0,7.990383911E-1,1.212770553E1
1.052253517E1,-1.180235687E1,-3.789369965E0,8.934919739E-1,1.242792341E1
1.053257517E1,-1.202299805E1,-4.222120056E0,1.039139099E0,1.278509249E1
1.054261417E1,-1.228719864E1,-4.713997192E0,1.104553070E0,1.320670502E1
1.055265317E1,-1.251382736E1,-5.065765686E0,1.012644196E0,1.353821648E1
1.056269217E1,-1.256322464E1,-5.146298218E0,8.879534912E-1,1.360542025E1
1.057273217E1,-1.247775238E1,-4.852758636E0,7.209008789E-1,1.340758252E1
1.058277117E1,-1.222552689E1,-4.210743713E0,4.514611816E-1,1.293822582E1
1.059281017E1,-1.179277679E1,-3.483256531E0,1.685494995E-1,1.229760422E1
1.060285017E1,-1.141601028E1,-2.778222656E0,-1.818717957E-1,1.175061229E1
1.061288917E1,-1.094179642E1,-2.248773651E0,-4.945715332E-1,1.118143518E1
1.062292817E1,-1.039707916E1,-2.000889130E0,-7.843688965E-1,1.061687558E1
1.063296717E1,-9.916578369E0,-2.075583801E0,-8.996292114E-1,1.017132771E1
1.064300717E1,-9.496851196E0,-2.289488983E0,-7.361691284E-1,9.796626329E0
1.065304617E1,-9.215137024E0,-2.673739929E0,-3.098556519E-1,9.600189899E0
1.066308517E1,-9.181007996E0,-3.302582245E0,1.065783691E-1,9.757526134E0
1.067312517E1,-9.313931580E0,-3.971391449E0,3.103047180E-1,1.013003260E1
1.068316417E1,-9.307045898E0,-4.438120880E0,4.337979126E-1,1.032018415E1
1.069320317E1,-9.252559204E0,-4.668342133E0,6.135740662E-1,1.038170233E1
1.070324217E1,-9.061406708E0,-4.709057465E0,7.924520874E-1,1.024267026E1
1.071328217E1,-8.871900787E0,-4.656965790E0,9.963281250E-1,1.006929112E1
1.072332117E1,-9.079818420E0,-4.596042480E0,1.285077667E0,1.025758908E1
1.073336017E1,-9.352102203E0,-4.623734894E0,1.509161682E0,1.054126695E1
1.074340017E1,-9.582922211E0,-4.775369568E0,1.673070831E0,1.083677621E1
1.075343917E1,-9.910590820E0,-4.941673737E0,1.795965271E0,1.121897682E1
1.076347817E1,-1.019290375E1,-5.018613739E0,1.879641266E0,1.151585090E1
1.077351717E1,-1.034393967E1,-5.003345490E0,1.894310760E0,1.164555568E1
1.078355717E1,-1.047386948E1,-5.014871521E0,1.835632782E0,1.175671833E1
1.079359617E1,-1.057925034E1,-5.024750977E0,1.644480286E0,1.182679058E1
1.080363517E1,-1.063119232E1,-5.020260315E0,1.158141632E0,1.181382901E1
1.081367517E1,-1.063268921E1,-5.064717865E0,7.182064819E-1,1.179920622E1
1.082371417E1,-1.062385757E1,-5.206622772E0,4.965174866E-1,1.184152862E1
1.083375317E1,-1.042058029E1,-5.209317169E0,4.186793518E-1,1.165764862E1
1.084379217E1,-1.015922379E1,-5.075345764E0,4.840933228E-1,1.136676334E1
1.085383217E1,-9.985135803E0,-5.008734283E0,5.798941040E-1,1.118600167E1
1.086387117E1,-9.921667786E0,-5.174140320E0,9.337582397E-1,1.122867419E1
1.087391017E1,-9.783954163E0,-5.255720673E0,1.354084167E0,1.118847187E1
1.088395017E1,-9.523795166E0,-5.268294525E0,1.611848145E0,1.100252953E1
1.089398917E1,-9.213191071E0,-5.262905731E0,1.605112152E0,1.073114400E1
1.090402817E1,-8.871900787E0,-5.292394409E0,1.576072540E0,1.045007497E1
1.091406717E1,-8.619525604E0,-5.154830475E0,1.578467560E0,1.016661491E1
1.092410717E1,-8.463699646E0,-5.062472534E0,1.641336823E0,9.997841088E0
1.093414617E1,-8.325087891E0,-5.017565918E0,1.756297760E0,9.877633216E0
1.094418517E1,-8.204887848E0,-4.971461792E0,1.672771454E0,9.738263771E0
1.095422517E1,-8.197403412E0,-4.932542725E0,1.516346741E0,9.686418733E0
1.096426417E1,-8.106542358E0,-4.788242798E0,1.384021912E0,9.516239528E0
1.097430317E1,-7.871231689E0,-4.652325439E0,1.326242065E0,9.239011761E0
1.098434317E1,-7.624993744E0,-4.646337891E0,1.280437317E0,9.020449274E0
1.099438217E1,-7.416327667E0,-4.729115753E0,1.259331207E0,8.885514446E0
1.100442117E1,-7.310198364E0,-4.890180817E0,1.283131714E0,8.888154788E0
1.101446017E1,-7.217840424E0,-5.031936035E0,1.332978058E0,8.899125302E0
1.102450017E1,-7.069947968E0,-5.101391602E0,1.382225647E0,8.827168758E0
1.103453917E1,-6.861132202E0,-5.094655609E0,1.392703857E0,8.658537689E0
1.104457817E1,-6.648723907E0,-5.004393311E0,1.427281952E0,8.443140161E0
1.105461817E1,-6.511609039E0,-4.968018951E0,1.363514557E0,8.303098008E0
1.106465717E1,-6.469247131E0,-5.143903198E0,1.220711517E0,8.354701381E0
1.107469617E1,-6.613996124E0,-5.431155853E0,1.048419800E0,8.622156500E0
1.108473517E1,-6.903943176E0,-5.791306915E0,7.611671448E-1,9.043397735E0
1.109477517E1,-7.231312408E0,-6.151308289E0,4.797523499E-1,9.505821118E0
1.110481417E1,-7.359895020E0,-6.369853821E0,3.851490784E-1,9.741223343E0
1.111485317E1,-7.332352295E0,-6.457272034E0,3.929328918E-1,9.778248747E0
1.112489317E1,-7.213050385E0,-6.440806274E0,3.677851868E-1,9.677155949E0
1.113493217E1,-7.026687927E0,-6.332281952E0,3.200344849E-1,9.464383763E0
1.114497117E1,-6.883435822E0,-6.162834320E0,2.835104370E-1,9.243516308E0
1.115501017E1,-6.905889130E0,-6.147117004E0,2.272274780E-1,9.248242236E0
1.116505017E1,-7.109016724E0,-6.323899384E0,1.606159973E-1,9.516071652E0
1.117508917E1,-7.337591400E0,-6.604715424E0,1.116677856E-1,9.872941967E0
1.118512817E1,-7.608977051E0,-6.875801697E0,1.278341675E-1,1.025619434E1
1.119516817E1,-7.925568695E0,-7.124883728E0,1.287322998E-1,1.065810393E1
1.120520717E1,-8.212372284E0,-7.253316650E0,1.157093811E-1,1.095751111E1
1.121524617E1,-8.407416687E0,-7.194638672E0,1.164578247E-1,1.106621179E1
1.122528517E1,-8.344248047E0,-6.982829132E0,1.933978271E-1,1.088226911E1
1.123532517E1,-8.143066406E0,-6.645430756E0,3.713777161E-1,1.051709094E1
1.124536417E1,-7.935298462E0,-6.222859497E0,5.387297058E-1,1.009867178E1
1.125540317E1,-7.700137482E0,-5.791456604E0,7.598199463E-1,9.664906269E0
1.126544317E1,-7.534132690E0,-5.403463440E0,1.018781433E0,9.327298009E0
1.127548217E1,-7.500303040E0,-5.133724365E0,1.221759338E0,9.170734290E0
1.128552117E1,-7.618706818E0,-4.971461792E0,1.395098877E0,9.203609444E0
1.129556017E1,-7.759114838E0,-4.861440582E0,1.561103668E0,9.288407413E0
1.130560017E1,-8.065228271E0,-4.873864746E0,1.670975189E0,9.570507965E0
1.131563917E1,-8.530161438E0,-5.007237396E0,1.590143280E0,1.001821522E1
1.132567817E1,-8.851543121E0,-5.128485260E0,1.369502106E0,1.032117787E1
1.133571817E1,-8.978030090E0,-5.189408569E0,1.092727661E0,1.042732177E1
1.134575717E1,-8.954229584E0,-5.224735107E0,7.476951599E-1,1.039399502E1
1.135579617E1,-8.820258179E0,-5.206173706E0,4.417314148E-1,1.025164990E1
1.136583517E1,-8.699160004E0,-5.152285767E0,2.276765442E-1,1.011302477E1
1.137587517E1,-8.648116150E0,-5.192402344E0,9.026229858E-2,1.008757168E1
1.138591417E1,-8.540190582E0,-5.206323395E0,6.706054688E-2,1.000225752E1
1.139595317E1,-8.442294159E0,-5.175487518E0,5.673202515E-2,9.902586543E0
1.140599317E1,-8.463400269E0,-5.187761993E0,-2.993774414E-4,9.926833266E0
1.141603217E1,-8.705446930E0,-5.283413086E0,-1.017883301E-1,1.018379207E1
1.142607117E1,-8.940308533E0,-5.379064178E0,-1.782792664E-1,1.043528781E1
1.143611117E1,-9.024134216E0,-5.450914764E0,-1.791773987E-1,1.054417255E1
1.144615017E1,-8.947643280E0,-5.518424377E0,-1.142124939E-1,1.051315235E1
1.145618917E1,-8.857530670E0,-5.554649048E0,3.951782227E-2,1.045521579E1
1.146622817E1,-8.946146393E0,-5.650449829E0,2.020797729E-1,1.058309760E1
1.147626817E1,-8.978030090E0,-5.733227692E0,3.528163147E-1,1.065830209E1
1.148630717E1,-8.916957092E0,-5.710175629E0,3.231779480E-1,1.059352035E1
1.149634617E1,-8.878038025E0,-5.691314850E0,3.047662354E-1,1.055004769E1
1.150638617E1,-8.909173279E0,-5.650000763E0,3.534150696E-1,1.055560417E1
1.151642517E1,-9.038354645E0,-5.638325043E0,3.683839417E-1,1.065918715E1
1.152646417E1,-9.167086945E0,-5.538931732E0,3.631448364E-1,1.071667495E1
1.153650317E1,-9.267528076E0,-5.394482117E0,3.350033569E-1,1.072845474E1
1.154654317E1,-9.406289520E0,-5.259911957E0,2.559677124E-1,1.078009628E1
1.155658217E1,-9.494755554E0,-5.132826233E0,6.256988525E-2,1.079352598E1
1.156662117E1,-9.643396454E0,-5.052892456E0,-1.570234680E-1,1.088813454E1
1.157666117E1,-9.851613464E0,-4.966971130E0,-3.513194275E-1,1.103850150E1
1.158670017E1,-1.000145187E1,-4.920268250E0,-5.730084229E-1,1.116093266E1
1.159673917E1,-1.005593857E1,-4.894821167E0,-7.946974182E-1,1.121216833E1
1.160677817E1,-1.002076172E1,-4.782554626E0,-8.443940735E-1,1.113559588E1
1.161681817E1,-9.968071289E0,-4.587510223E0,-8.442443848E-1,1.100547336E1
1.162685717E1,-1.003318588E1,-4.412224731E0,-8.186476135E-1,1.099102952E1
1.163689617E1,-1.015069153E1,-4.197271729E0,-8.277786255E-1,1.101539132E1
1.164693617E1,-1.014066238E1,-3.982318726E0,-7.321275330E-1,1.091915321E1
1.165697517E1,-1.012838791E1,-3.859873352E0,-6.161187744E-1,1.085644814E1
1.166701417E1,-1.019110748E1,-3.798351288E0,-5.872288513E-1,1.089178507E1
1.167705317E1,-1.017733612E1,-3.750151520E0,-5.682183838E-1,1.086115459E1
1.168709317E1,-1.014605118E1,-3.770060120E0,-4.872367859E-1,1.083480999E1
1.169713217E1,-1.010039612E1,-3.846850433E0,-3.701802063E-1,1.081449460E1
1.170717117E1,-1.013138168E1,-4.043990479E0,-2.978805542E-1,1.091272132E1
1.171721117E1,-1.024469604E1,-4.284689941E0,-2.195933533E-1,1.110678109E1
1.172725017E1,-1.041189835E1,-4.538412323E0,-1.067280579E-1,1.135853003E1
1.173728917E1,-1.062894699E1,-4.741539917E0,1.437011719E-2,1.163859620E1
1.174732917E1,-1.096380066E1,-4.772375793E0,1.056802368E-1,1.195791219E1
1.175736817E1,-1.129266678E1,-4.638254700E0,1.713935852E-1,1.220930405E1
1.176740717E1,-1.150417694E1,-4.501139832E0,1.496887207E-1,1.235430102E1
1.177744617E1,-1.162587387E1,-4.505031738E0,-4.041595459E-3,1.246821040E1
1.178748617E1,-1.168395309E1,-4.522395630E0,-1.588197327E-1,1.252964668E1
1.179752517E1,-1.171718399E1,-4.454436951E0,-1.749861145E-1,1.253654774E1
1.180756417E1,-1.174936707E1,-4.306694183E0,-2.529739380E-2,1.251382760E1
1.181760417E1,-1.177436508E1,-4.163292389E0,2.177970886E-1,1.249064098E1
1.182764317E1,-1.170925049E1,-4.075724487E0,4.474195862E-1,1.240637987E1
1.183768217E1,-1.161629379E1,-4.000131683E0,6.233038330E-1,1.230153822E1
1.184772117E1,-1.151360733E1,-3.946842499E0,7.833210754E-1,1.219648767E1
1.185776117E1,-1.136451736E1,-3.892056427E0,9.999206543E-1,1.205405324E1
1.186780017E1,-1.124925705E1,-3.910917206E0,1.188977509E0,1.196890659E1
1.187783917E1,-1.120929016E1,-4.046834564E0,1.360221405E0,1.199480130E1
1.188787917E1,-1.117935242E1,-4.316423950E0,1.459315338E0,1.207224244E1
1.189791817E1,-1.111019623E1,-4.632117462E0,1.450184326E0,1.212419098E1
1.190795717E1,-1.095811249E1,-4.858446808E0,1.365610199E0,1.206439497E1
1.191799617E1,-1.073417816E1,-5.022056580E0,1.268761597E0,1.191861523E1
1.192803617E1,-1.048120422E1,-5.110821991E0,1.166973267E0,1.171912838E1
1.193807517E1,-1.030008087E1,-5.201832733E0,1.079555054E0,1.158948527E1
1.194811417E1,-1.009650421E1,-5.222040710E0,1.082099762E0,1.141840822E1
1.195815417E1,-9.858499146E0,-5.078788605E0,1.145867157E0,1.114886141E1
1.196819317E1,-9.589957581E0,-4.830754395E0,1.245110779E0,1.080989247E1
1.197823217E1,-9.401349792E0,-4.621040497E0,1.300046539E0,1.055601791E1
1.198827117E1,-9.269324341E0,-4.464316406E0,1.315314789E0,1.037210430E1
1.199831117E1,-9.092242584E0,-4.350552979E0,1.352287903E0,1.016980182E1
1.200835017E1,-9.034911804E0,-4.379293213E0,1.413510590E0,1.013932209E1
1.201838917E1,-9.026379547E0,-4.486919403E0,1.403331757E0,1.017729402E1
1.202842917E1,-9.119186554E0,-4.666695557E0,1.336720276E0,1.033075176E1
1.203846817E1,-9.461524658E0,-4.972808990E0,1.155147858E0,1.075098343E1
1.204850717E1,-9.942025452E0,-5.352120209E0,8.476872253E-1,1.132288101E1
1.205854717E1,-1.044976959E1,-5.723048859E0,5.399272156E-1,1.192654578E1
1.206858617E1,-1.083970871E1,-6.090534668E0,2.854563904E-1,1.243685582E1
1.207862517E1,-1.104029160E1,-6.484814758E0,1.375639343E-1,1.280467824E1
1.208866417E1,-1.116138977E1,-6.888974304E0,1.457968140E-1,1.311700596E1
1.209870379E1,-1.112277008E1,-7.240293732E0,2.564167786E-1,1.327417105E1
1.210874279E1,-1.092607910E1,-7.469018097E0,4.767585754E-1,1.324359221E1
1.211878179E1,-1.065020279E1,-7.590415649E0,7.785310364E-1,1.310142510E1
1.212882179E1,-1.042791504E1,-7.670798492E0,1.010099487E0,1.298471650E1
1.213886079E1,-1.019949005E1,-7.785160675E0,1.145867157E0,1.288221004E1
1.214889979E1,-1.020308258E1,-7.921227722E0,1.295106812E0,1.298175814E1
1.215893879E1,-1.026939468E1,-8.065527649E0,1.373394012E0,1.313009576E1
1.216897879E1,-1.005040009E1,-8.032296753E0,1.336869965E0,1.293505138E1
1.217901779E1,-9.513167267E0,-7.816894684E0,1.207987976E0,1.237188057E1
1.218905679E1,-8.803642731E0,-7.412735138E0,1.149459686E0,1.156607216E1
1.219909679E1,-8.132438507E0,-6.965764618E0,1.140777740E0,1.076846352E1
1.220913579E1,-7.565866699E0,-6.625372467E0,1.220412140E0,1.013051356E1
1.221917479E1,-7.158264313E0,-6.324198761E0,1.407672729E0,9.654935549E0
1.222921479E1,-6.889872437E0,-6.000871124E0,1.539997559E0,9.265656422E0
1.223925379E1,-6.781198425E0,-5.784570923E0,1.557062073E0,9.048223867E0
1.224929279E1,-6.678062897E0,-5.657485199E0,1.508113861E0,8.881332684E0
1.225933179E1,-6.505621490E0,-5.539829865E0,1.415157166E0,8.661148637E0
1.226937179E1,-6.357130280E0,-5.419929199E0,1.253343658E0,8.447461645E0
1.227941079E1,-6.379284210E0,-5.488336945E0,1.046324158E0,8.480088661E0
1.228944979E1,-6.429280243E0,-5.633984070E0,9.134005737E-1,8.597192655E0
1.229948979E1,-6.320007477E0,-5.695506134E0,8.735833740E-1,8.552451844E0
1.230952879E1,-6.146817627E0,-5.742658081E0,8.851094055E-1,8.458422278E0
1.231956779E1,-6.131549377E0,-5.934259644E0,8.135581970E-1,8.571651663E0
1.232960679E1,-6.241420898E0,-6.304439850E0,6.957531738E-1,8.898616136E0
1.233964679E1,-6.404880981E0,-6.775061188E0,5.679190063E-1,9.340582770E0
1.234968579E1,-6.459517365E0,-7.214696960E0,5.110372925E-1,9.697338600E0
1.235972479E1,-6.337371368E0,-7.458839264E0,4.971162415E-1,9.800187936E0
1.236976479E1,-6.032605133E0,-7.471712494E0,4.065545654E-1,9.611664731E0
1.237980379E1,-5.603148193E0,-7.345375214E0,1.689985657E-1,9.240041516E0
1.238984279E1,-5.228627014E0,-7.233557739E0,-1.612147522E-1,8.926863291E0
1.239988279E1,-5.040617981E0,-7.212900696E0,-5.703140259E-1,8.818107743E0
1.240992179E1,-5.136119385E0,-7.363188171E0,-9.255253601E-1,9.025123798E0
1.241996079E1,-5.530249786E0,-7.590265961E0,-1.171912994E0,9.464099541E0
1.242999979E1,-6.239624634E0,-7.817643127E0,-1.241967316E0,1.007923323E1
1.244003979E1,-7.068451080E0,-7.979306946E0,-1.124162292E0,1.071895895E1
1.245007879E1,-7.850125580E0,-8.064479828E0,-8.165519714E-1,1.128392944E1
1.246011779E1,-8.428822174E0,-7.965685272E0,-4.052073669E-1,1.160436892E1
1.247015779E1,-8.720415802E0,-7.723488922E0,-9.834548950E-2,1.164936070E1
1.248019679E1,-8.737031250E0,-7.275171204E0,9.520202637E-2,1.136982386E1
1.249023579E1,-8.583151245E0,-6.638245697E0,2.559677124E-1,1.085367729E1
1.250027479E1,-8.459208984E0,-6.048472137E0,3.938310242E-1,1.040660054E1
1.251031479E1,-8.608298950E0,-5.608087921E0,4.349954224E-1,1.028312608E1
1.252035379E1,-8.965007172E0,-5.394033051E0,4.418811035E-1,1.047197236E1
1.253039279E1,-9.572593689E0,-5.554499359E0,3.065625000E-1,1.107163013E1
1.254043279E1,-1.032403107E1,-5.932014313E0,-2.709365845E-2,1.190693686E1
1.255047179E1,-1.078387482E1,-6.200705566E0,-4.020639038E-1,1.244597770E1
1.256051079E1,-1.090946365E1,-6.452631683E0,-6.941065979E-1,1.269388187E1
1.257055079E1,-1.077579163E1,-6.678212585E0,-9.294172668E-1,1.271141318E1
1.258058979E1,-1.047940796E1,-6.737040253E0,-1.089584198E0,1.250571454E1
1.259062879E1,-9.960287476E0,-6.554719391E0,-1.139879608E0,1.197793799E1
1.260066779E1,-9.383237457E0,-6.270011444E0,-1.069376221E0,1.133586142E1
1.261070779E1,-8.905431061E0,-5.918392639E0,-8.851094055E-1,1.072928201E1
1.262074679E1,-8.691825256E0,-5.580395508E0,-6.251000977E-1,1.034791720E1
1.263078579E1,-8.718619537E0,-5.347928925E0,-4.572990417E-1,1.023834913E1
1.264082579E1,-8.731642456E0,-5.231770477E0,-3.608995056E-1,1.018544308E1
1.265086479E1,-8.575068054E0,-5.093158722E0,-9.624984741E-2,9.974032381E0
1.266090379E1,-8.291258240E0,-4.869074707E0,3.333567810E-1,9.621017537E0
1.267094379E1,-8.053103485E0,-4.633314972E0,7.038363647E-1,9.317481902E0
1.268098279E1,-7.823930054E0,-4.500840454E0,8.686436462E-1,9.067854656E0
1.269102179E1,-7.549850006E0,-4.467609558E0,9.741741943E-1,8.826595359E0
1.270106079E1,-7.306156769E0,-4.490212555E0,1.006956024E0,8.634575609E0
1.271110079E1,-7.130122833E0,-4.523293762E0,8.900491333E-1,8.490643411E0
1.272113979E1,-7.021598511E0,-4.593797150E0,6.755451965E-1,8.417967641E0
1.273117879E1,-7.017407227E0,-4.612807617E0,4.463717651E-1,8.409592502E0
1.274121879E1,-7.034322052E0,-4.504432983E0,3.975732422E-1,8.362396051E0
1.275125779E1,-7.074438629E0,-4.314477997E0,4.266128540E-1,8.297252607E0
1.276129679E1,-7.317982178E0,-4.196223907E0,3.851490784E-1,8.444495133E0
1.277133579E1,-7.566166077E0,-4.095633087E0,3.249742126E-1,8.609685692E0
1.278137579E1,-7.834557953E0,-4.051624603E0,2.281256104E-1,8.823151452E0
1.279141479E1,-8.221054230E0,-4.108656006E0,5.718109131E-2,9.190759299E0
1.280145379E1,-8.498277740E0,-4.154311066E0,-1.002914429E-1,9.459866984E0
1.281149379E1,-8.770561523E0,-4.180057526E0,-1.757345581E-1,9.717330549E0
1.282153279E1,-9.091793518E0,-4.209396515E0,-2.324665833E-1,1.002166499E1
1.283157179E1,-9.323511658E0,-4.197870483E0,-1.881587219E-1,1.022669986E1
1.284161179E1,-9.579329681E0,-4.170477448E0,-7.933502197E-3,1.044779892E1
1.285165079E1,-9.966873779E0,-4.113296356E0,2.155517578E-1,1.078444446E1
1.286168979E1,-1.025562332E1,-4.073179779E0,4.460723877E-1,1.104389351E1
1.287172879E1,-1.050725006E1,-4.097579041E0,6.783892822E-1,1.129834810E1
1.288176879E1,-1.098056580E1,-4.179009705E0,7.357200623E-1,1.177192556E1
1.289180779E1,-1.145867157E1,-4.164040833E0,6.451583862E-1,1.220887462E1
1.290184679E1,-1.151166138E1,-4.107757874E0,5.198689270E-1,1.223365383E1
1.291188679E1,-1.144684616E1,-4.114344177E0,4.026626587E-1,1.217046639E1
1.292192579E1,-1.130898285E1,-4.045038300E0,3.344046021E-1,1.201529252E1
1.293196479E1,-1.110196335E1,-3.880231018E0,3.330574036E-1,1.176523311E1
1.294200479E1,-1.092098969E1,-3.756288757E0,3.788621521E-1,1.155513987E1
1.295204379E1,-1.095182556E1,-3.713926849E0,3.775149536E-1,1.157057705E1
1.296208279E1,-1.122066650E1,-3.688330078E0,2.998265076E-1,1.181511877E1
1.297212179E1,-1.188288940E1,-3.726201324E0,2.133064270E-1,1.245524534E1
1.298216179E1,-1.257939102E1,-3.835025024E0,1.486408997E-1,1.315182837E1
1.299220079E1,-1.298579590E1,-4.018094330E0,2.157014465E-1,1.359494407E1
1.300223979E1,-1.311991699E1,-4.370461578E0,3.424877930E-1,1.383294814E1
1.301227979E1,-1.310464874E1,-4.829856262E0,4.502636719E-1,1.397362042E1
1.302231879E1,-1.302142181E1,-5.198988647E0,6.047424316E-1,1.403398099E1
1.303235779E1,-1.278431488E1,-5.270390167E0,8.669970703E-1,1.385523018E1
1.304239779E1,-1.246727417E1,-5.029091949E0,1.115180969E0,1.348956336E1
1.305243679E1,-1.216310669E1,-4.628674622E0,1.253044281E0,1.307424618E1
1.306247579E1,-1.201581299E1,-4.281845856E0,1.210382996E0,1.281323506E1
1.307251479E1,-1.193887299E1,-4.121229858E0,9.948312378E-1,1.266929015E1
1.308255479E1,-1.184412003E1,-4.101620636E0,8.059240723E-1,1.256009493E1
1.309259404E1,-1.171209457E1,-4.172872467E0,7.457492065E-1,1.245560781E1
1.310263304E1,-1.163530426E1,-4.287534027E0,7.809260559E-1,1.242469713E1
1.311267304E1,-1.140478363E1,-4.379293213E0,8.684939575E-1,1.224751324E1
1.312271204E1,-1.094943054E1,-4.493206329E0,9.656419373E-1,1.187482196E1
1.313275104E1,-1.051937485E1,-4.545747070E0,1.019080811E0,1.150476377E1
1.314279104E1,-1.005339386E1,-4.557422791E0,1.090182953E0,1.109185870E1
1.315283004E1,-9.630373535E0,-4.552333374E0,1.185983734E0,1.071794714E1
1.316286904E1,-9.234746246E0,-4.520000610E0,1.294058990E0,1.036269909E1
1.317290804E1,-8.844807129E0,-4.378694458E0,1.413211212E0,9.969992188E0
1.318294804E1,-8.620423737E0,-4.182003479E0,1.489402771E0,9.696348751E0
1.319298704E1,-8.526718597E0,-3.966900787E0,1.527723083E0,9.527600418E0
1.320302604E1,-8.427175598E0,-3.787873077E0,1.517544250E0,9.363130436E0
1.321306604E1,-8.452323303E0,-3.704496460E0,1.494492188E0,9.348720241E0
1.322310504E1,-8.604706421E0,-3.781137085E0,1.485959930E0,9.515568672E0
1.323314404E1,-8.885372772E0,-3.964206390E0,1.447190552E0,9.836622495E0
1.324318404E1,-9.286239166E0,-4.345014496E0,1.381926270E0,1.034519739E1
1.325322304E1,-9.650282135E0,-4.730762329E0,1.255139923E0,1.082050986E1
1.326326204E1,-9.876461792E0,-5.056335297E0,1.109492798E0,1.115087433E1
1.327330104E1,-9.985734558E0,-5.289849701E0,1.021924896E0,1.134644151E1
1.328334104E1,-9.986483002E0,-5.496120758E0,9.514215088E-1,1.143863580E1
1.329338004E1,-9.943672028E0,-5.691165161E0,9.758207703E-1,1.149861733E1
1.330341904E1,-9.941127319E0,-5.820196838E0,1.076112213E0,1.156973297E1
1.331345904E1,-1.010907806E1,-6.039041748E0,1.202000427E0,1.183673475E1
1.332349804E1,-1.047386948E1,-6.347999268E0,1.305135956E0,1.231675348E1
1.333353704E1,-1.075393707E1,-6.526428223E0,1.475781097E0,1.266567636E1
1.334357704E1,-1.083881058E1,-6.514153748E0,1.654958496E0,1.275354466E1
1.335361604E1,-1.076980408E1,-6.394253082E0,1.701661377E0,1.264004762E1
1.336365504E1,-1.058613602E1,-6.167774048E0,1.612446899E0,1.235749560E1
1.337369404E1,-1.015114059E1,-5.824238434E0,1.530417480E0,1.180294821E1
1.338373404E1,-9.705068207E0,-5.590724030E0,1.563648376E0,1.130882577E1
1.339377304E1,-9.309440918E0,-5.554199982E0,1.694925385E0,1.097212831E1
1.340381204E1,-8.919801178E0,-5.736670532E0,1.654958496E0,1.073364474E1
1.341385204E1,-8.372688904E0,-5.895789642E0,1.481618958E0,1.034685700E1
1.342389104E1,-7.692503357E0,-5.867498474E0,1.233884125E0,9.753184930E0
1.343393004E1,-7.034022675E0,-5.746400299E0,9.862989807E-1,9.136267130E0
1.344397004E1,-6.456224213E0,-5.644611969E0,7.481442261E-1,8.608379357E0
1.345400904E1,-6.060297546E0,-5.577701111E0,6.506968689E-1,8.262043479E0
1.346404804E1,-5.809868317E0,-5.533842316E0,6.276448059E-1,8.048100312E0
1.347408704E1,-5.850284271E0,-5.512736206E0,6.101312256E-1,8.061535005E0
1.348412704E1,-6.248755646E0,-5.741011505E0,6.497987366E-1,8.510487567E0
1.349416604E1,-6.846163330E0,-6.202052765E0,5.977070618E-1,9.257033249E0
1.350420504E1,-7.264992371E0,-6.616091766E0,5.010081482E-1,9.838891887E0
1.351424504E1,-7.499554596E0,-6.922953644E0,4.665797424E-1,1.021705941E1
1.352428404E1,-7.634124756E0,-7.113806763E0,3.944297791E-1,1.044230254E1
1.353432304E1,-7.411537628E0,-7.203619995E0,2.383044434E-1,1.033826968E1
1.354436304E1,-6.970854034E0,-7.215744781E0,1.300794983E-1,1.003377792E1
1.355440204E1,-6.449039154E0,-7.233108673E0,-6.601272583E-2,9.690837155E0
1.356444104E1,-5.948330383E0,-7.053482208E0,-2.100132751E-1,9.229211840E0
1.357448004E1,-5.790109406E0,-6.846911774E0,-3.520678711E-1,8.973824132E0
1.358452004E1,-6.074068909E0,-6.822063446E0,-4.616400146E-1,9.145926649E0
1.359455904E1,-6.633605347E0,-7.019951935E0,-5.408253479E-1,9.673517309E0
1.360459804E1,-7.273225250E0,-7.397317200E0,-5.447172546E-1,1.038830228E1
1.361463804E1,-7.896978149E0,-7.845335541E0,-4.486170959E-1,1.114059293E1
1.362467704E1,-8.455766144E0,-8.125852203E0,-3.501219177E-1,1.173252064E1
1.363471604E1,-8.702303467E0,-7.983198853E0,-1.950444031E-1,1.181099453E1
1.364475604E1,-8.722960510E0,-7.519612885E0,-1.886077881E-2,1.151672582E1
1.365479504E1,-8.686735840E0,-6.780449982E0,8.008346558E-2,1.101999523E1
1.366483404E1,-8.519383850E0,-5.927373962E0,1.809736633E-1,1.038009705E1
1.367487304E1,-8.432414703E0,-5.250182190E0,3.411405945E-1,9.939135157E0
1.368491304E1,-8.671018524E0,-4.924609222E0,3.493734741E-1,9.977995794E0
1.369495204E1,-9.147477722E0,-4.890180817E0,1.893562317E-1,1.037429867E1
1.370499104E1,-9.585017853E0,-5.020559692E0,-7.649093628E-2,1.082055626E1
1.371503104E1,-9.806407471E0,-5.187761993E0,-3.860472107E-1,1.110078981E1
1.372507004E1,-9.827513580E0,-5.451064453E0,-7.809260559E-1,1.126516633E1
1.373510904E1,-9.667196960E0,-5.736371155E0,-1.116228790E0,1.129630992E1
1.374514904E1,-9.355994110E0,-5.978717194E0,-1.248104553E0,1.117306807E1
1.375518804E1,-8.966504059E0,-6.109694824E0,-1.265019379E0,1.092368253E1
1.376522704E1,-8.668024750E0,-6.179898834E0,-1.194665680E0,1.071228401E1
1.377526604E1,-8.463100891E0,-6.101911011E0,-1.087937622E0,1.049004304E1
1.378530604E1,-8.145611115E0,-5.810167694E0,-8.313711548E-1,1.003993063E1
1.379534504E1,-7.787106628E0,-5.418282623E0,-4.168830872E-1,9.495820540E0
1.380538404E1,-7.444020081E0,-4.994962921E0,4.490661621E-3,8.964547379E0
1.381542404E1,-7.163353729E0,-4.627177734E0,3.480262756E-1,8.534959445E0
1.382546304E1,-7.048841858E0,-4.342320099E0,7.421566772E-1,8.312202591E0
1.383550204E1,-7.073241119E0,-4.153862000E0,1.092428284E0,8.275186342E0
1.384554204E1,-7.081473999E0,-4.036506042E0,1.286275177E0,8.251979088E0
1.385558104E1,-7.033723297E0,-3.932472382E0,1.268312531E0,8.157586599E0
1.386562004E1,-6.907086639E0,-3.855981445E0,9.972262573E-1,7.973136081E0
1.387566004E1,-6.639592896E0,-3.780837708E0,5.764512634E-1,7.662324951E0
1.388569904E1,-6.526128845E0,-3.798500977E0,2.378553772E-1,7.554835707E0
1.389573804E1,-6.585405579E0,-3.904480591E0,8.681945801E-3,7.655887323E0
1.390577704E1,-6.852599945E0,-4.102369080E0,-1.453477478E-1,7.988033803E0
1.391581704E1,-7.122488708E0,-4.371210022E0,-2.436932373E-1,8.360425160E0
1.392585604E1,-7.317832489E0,-4.575684814E0,-2.218386841E-1,8.633468380E0
1.393589504E1,-7.613168335E0,-4.752167816E0,-1.411564636E-1,8.975709231E0
1.394593504E1,-8.030650177E0,-4.867727509E0,-9.325607300E-2,9.391209190E0
1.395597404E1,-8.433761902E0,-4.956642609E0,-7.708969116E-2,9.782769985E0
1.396601304E1,-8.870852966E0,-4.907245331E0,-1.781295776E-1,1.013927114E1
1.397605304E1,-9.076076202E0,-4.719835052E0,-2.914439392E-1,1.023410679E1
1.398609204E1,-9.146280212E0,-4.524042206E0,-4.236190796E-1,1.021277889E1
1.399613104E1,-9.241482239E0,-4.396208038E0,-5.668711853E-1,1.024953570E1
1.400617004E1,-9.332792358E0,-4.235442352E0,-6.783892822E-1,1.027132889E1
1.401621004E1,-9.475745087E0,-4.041894836E0,-6.153703308E-1,1.032014241E1
1.402624904E1,-9.777068481E0,-3.895199890E0,-5.239105225E-1,1.053746329E1
1.403628804E1,-1.003662872E1,-3.730841675E0,-4.620890808E-1,1.071758471E1
1.404632804E1,-1.007360184E1,-3.449277191E0,-3.444337463E-1,1.065333759E1
1.405636704E1,-1.009410919E1,-3.122955780E0,-2.601589966E-1,1.056936970E1
1.406640604E1,-1.029379395E1,-2.914589081E0,-3.659889221E-1,1.070471724E1
1.407644604E1,-1.053269714E1,-2.909799042E0,-5.992039490E-1,1.094365958E1
1.408648504E1,-1.080857346E1,-3.096311188E0,-7.560777283E-1,1.126872028E1
1.409652404E1,-1.116812576E1,-3.444487152E0,-7.967930603E-1,1.171436742E1
1.410656404E1,-1.140972336E1,-3.856280823E0,-7.726931763E-1,1.206854356E1
1.411660304E1,-1.145927032E1,-4.278253326E0,-6.571334839E-1,1.224949600E1
1.412664204E1,-1.155746613E1,-4.602179718E0,-4.909790039E-1,1.244974465E1
1.413668104E1,-1.162407761E1,-4.807852020E0,-3.544628906E-1,1.258412751E1
1.414672104E1,-1.172362061E1,-4.909191284E0,-2.362088013E-1,1.271216873E1
1.415676004E1,-1.197704361E1,-4.873565369E0,-1.764830017E-1,1.293183511E1
1.416679904E1,-1.227597198E1,-4.791086884E0,-1.435514832E-1,1.317856626E1
1.417683904E1,-1.259016861E1,-4.750371552E0,-5.328918457E-2,1.345664205E1
1.418687804E1,-1.285556671E1,-4.691693573E0,6.511459351E-2,1.368509496E1
1.419691704E1,-1.294253586E1,-4.503385162E0,1.887574768E-1,1.370493859E1
1.420695704E1,-1.285062698E1,-4.237987061E0,2.936892700E-1,1.353460016E1
1.421699604E1,-1.263058456E1,-3.967798920E0,3.662882996E-1,1.324421616E1
1.422703504E1,-1.241233841E1,-3.725602570E0,3.405418396E-1,1.296388167E1
1.423707404E1,-1.214364716E1,-3.494333496E0,3.625460815E-1,1.264159691E1
1.424711404E1,-1.179277679E1,-3.266357574E0,4.290078735E-1,1.224429353E1
1.425715304E1,-1.141855499E1,-3.088078308E0,5.587879944E-1,1.184195380E1
1.426719204E1,-1.106424179E1,-3.023562469E0,6.776408386E-1,1.148993357E1
1.427723204E1,-1.075124268E1,-3.047961731E0,7.183561707E-1,1.119800542E1
1.428727104E1,-1.058374100E1,-3.208428040E0,6.852749634E-1,1.108057696E1
1.429731004E1,-1.044228516E1,-3.489543457E0,6.292913818E-1,1.102788468E1
1.430735004E1,-1.033810181E1,-3.822600861E0,6.113287354E-1,1.103912810E1
1.431738904E1,-1.026086243E1,-4.184997253E0,5.553451538E-1,1.109540031E1
1.432742804E1,-1.018167709E1,-4.482578430E0,5.153782654E-1,1.113668140E1
1.433746804E1,-1.008078690E1,-4.678221588E0,5.236111450E-1,1.112574448E1
1.434750704E1,-9.986033936E0,-4.838837585E0,5.295986938E-1,1.110926180E1
1.435754604E1,-9.827513580E0,-4.871320038E0,5.430706787E-1,1.098201748E1
1.436758504E1,-9.522897034E0,-4.848717041E0,6.695576477E-1,1.070719068E1
1.437762504E1,-9.141041107E0,-4.832101593E0,8.580157471E-1,1.037516406E1
1.438766404E1,-8.717871094E0,-4.747976532E0,1.051862640E0,9.982533374E0
1.439770304E1,-8.361611938E0,-4.630470886E0,1.221160583E0,9.635821086E0
1.440774304E1,-8.118667145E0,-4.565056915E0,1.392105103E0,9.417561121E0
1.441778204E1,-8.027955780E0,-4.496349792E0,1.554667053E0,9.331785741E0
1.442782104E1,-8.138276367E0,-4.424948273E0,1.637744293E0,9.407120485E0
1.443786104E1,-8.344996490E0,-4.393064575E0,1.596579895E0,9.564886311E0
1.444790004E1,-8.642727356E0,-4.381837921E0,1.370998993E0,9.786566198E0
1.445793904E1,-8.873846741E0,-4.325554962E0,1.072220306E0,9.930017024E0
1.446797904E1,-8.911268921E0,-4.235741730E0,8.372090149E-1,9.902178584E0
1.447801804E1,-8.771010590E0,-4.174519043E0,7.322772217E-1,9.741327729E0
1.448805704E1,-8.648864594E0,-4.195475464E0,6.872209167E-1,9.637278958E0
1.449809604E1,-8.669521637E0,-4.347708893E0,7.098239136E-1,9.724557986E0
1.450813604E1,-8.850345612E0,-4.627926178E0,8.500822449E-1,1.002342047E1
1.451817504E1,-9.020092621E0,-4.916526031E0,9.780661011E-1,1.031944342E1
1.452821404E1,-9.120982819E0,-5.144801331E0,1.085542603E0,1.052804403E1
1.453825404E1,-9.169032898E0,-5.309458923E0,1.215472412E0,1.066484372E1
1.454829304E1,-9.228609009E0,-5.406307526E0,1.340013428E0,1.077919391E1
1.455833204E1,-9.316476288E0,-5.440735931E0,1.469494171E0,1.088842280E1
1.456837204E1,-9.316476288E0,-5.436394958E0,1.564845886E0,1.089953500E1
1.457841104E1,-9.276210022E0,-5.358706512E0,1.637594604E0,1.083722861E1
1.458845004E1,-9.261839905E0,-5.312602386E0,1.586700439E0,1.079458387E1
1.459848904E1,-9.161847839E0,-5.287454681E0,1.529818726E0,1.068817001E1
1.460852904E1,-8.963360596E0,-5.275928650E0,1.538051605E0,1.051393642E1
1.461856804E1,-8.733438721E0,-5.255720673E0,1.599723358E0,1.031768707E1
1.462860704E1,-8.381370850E0,-5.166805573E0,1.673819275E0,9.987238262E0
1.463864704E1,-8.128396912E0,-4.981640625E0,1.742526398E0,9.691438382E0
1.464868604E1,-7.994874573E0,-4.827161865E0,1.674118652E0,9.488002127E0
1.465872504E1,-7.747139740E0,-4.671335907E0,1.532213745E0,9.175360062E0
1.466876504E1,-7.518565063E0,-4.596042480E0,1.453477478E0,8.931126686E0
1.467880404E1,-7.348368988E0,-4.640500031E0,1.360071716E0,8.796735894E0
1.468884304E1,-7.290738831E0,-4.800367584E0,1.263971558E0,8.820205538E0
1.469888304E1,-7.425608368E0,-5.027894440E0,1.256936188E0,9.055344870E0
1.470892204E1,-7.634274445E0,-5.314997406E0,1.226250000E0,9.382698587E0
1.471896104E1,-7.877518616E0,-5.629194031E0,1.162781982E0,9.751676108E0
1.472900104E1,-8.053702240E0,-5.892197113E0,1.116378479E0,1.004123536E1
1.473904004E1,-8.081843719E0,-6.079906769E0,1.061442719E0,1.016897856E1
1.474907904E1,-8.163424072E0,-6.212231598E0,9.027726746E-1,1.029797614E1
1.475911804E1,-8.195307770E0,-6.286776581E0,6.947053528E-1,1.035225795E1
1.476915804E1,-8.197702789E0,-6.283333740E0,5.366340637E-1,1.034265875E1
1.477919704E1,-8.184679871E0,-6.199508057E0,4.626878357E-1,1.027798447E1
1.478923604E1,-8.173902283E0,-6.067482605E0,4.234693909E-1,1.018854013E1
1.479927604E1,-8.209228821E0,-5.972430267E0,4.260140991E-1,1.016084884E1
1.480931504E1,-8.287516022E0,-5.956413574E0,3.439846802E-1,1.021176331E1
1.481935404E1,-8.263715515E0,-6.047574005E0,2.372566223E-1,1.024297009E1
1.482939404E1,-8.150550842E0,-6.245163116E0,1.570234680E-1,1.026928419E1
1.483943304E1,-8.062084808E0,-6.527026978E0,1.194515991E-1,1.037369564E1
1.484947204E1,-8.175848236E0,-6.735992432E0,1.956431580E-1,1.059511041E1
1.485951204E1,-8.227041779E0,-6.785539398E0,3.168910217E-1,1.066902907E1
1.486955104E1,-8.133186951E0,-6.670428772E0,3.841012573E-1,1.052572486E1
1.487959004E1,-7.908504181E0,-6.298452301E0,3.496728516E-1,1.011618559E1
1.488962904E1,-7.643704834E0,-5.750441895E0,3.183879089E-1,9.570536894E0
1.489966904E1,-7.520660706E0,-5.182522888E0,3.559597778E-1,9.140327582E0
1.490970804E1,-7.525450745E0,-4.816983032E0,4.146377563E-1,8.944700046E0
1.491974704E1,-7.605833588E0,-4.617148590E0,4.337979126E-1,8.908139328E0
1.492978704E1,-7.790250092E0,-4.477339325E0,5.213658142E-1,9.000354784E0
1.493982604E1,-8.112978973E0,-4.385131073E0,6.551875305E-1,9.245489335E0
1.494986504E1,-8.361611938E0,-4.393363953E0,7.686515808E-1,9.476762437E0
1.495990504E1,-8.453221436E0,-4.489314423E0,8.665480042E-1,9.610504777E0
1.496994404E1,-8.399782562E0,-4.639302521E0,8.797206116E-1,9.636046042E0
1.497998304E1,-8.151598663E0,-4.838687897E0,7.201524353E-1,9.506843896E0
1.499002204E1,-7.893235931E0,-5.043013000E0,4.787045288E-1,9.378929130E0
1.500006204E1,-7.762258301E0,-5.206173706E0,2.454895020E-1,9.349714631E0
1.501010104E1,-7.760462036E0,-5.452711029E0,6.496490479E-2,9.484779861E0
1.502014004E1,-7.797135773E0,-5.715265045E0,-1.202000427E-1,9.668196773E0
1.503018004E1,-7.765252075E0,-5.902375946E0,-2.483335876E-1,9.756989862E0
1.504021904E1,-7.733218689E0,-5.961053925E0,-3.094065857E-1,9.768959393E0
1.505025804E1,-7.664810944E0,-5.904621277E0,-2.851570129E-1,9.679627769E0
1.506029804E1,-7.643854523E0,-5.705086212E0,-2.239343262E-1,9.540789655E0
1.507033704E1,-7.741152191E0,-5.476212158E0,-1.490899658E-1,9.483489056E0
1.508037604E1,-7.974816284E0,-5.284909973E0,-1.206491089E-1,9.567785763E0
1.509041604E1,-8.258626099E0,-5.273084564E0,-2.258802795E-1,9.801089111E0
1.510045542E1,-8.347840576E0,-5.249134369E0,-4.152365112E-1,9.869765715E0
1.511049442E1,-8.264463959E0,-5.162015533E0,-5.836363220E-1,9.761577754E0
1.512053342E1,-8.102351074E0,-5.096601562E0,-7.301815796E-1,9.599823204E0
1.513057342E1,-7.880213013E0,-5.044360199E0,-7.881111145E-1,9.389592434E0
1.514061242E1,-7.790250092E0,-5.079986115E0,-7.560777283E-1,9.330911474E0
1.515065142E1,-7.739804993E0,-5.216053162E0,-6.788383484E-1,9.358024012E0
1.516069142E1,-7.755821686E0,-5.313949585E0,-5.432203674E-1,9.417320138E0
1.517073042E1,-7.958949280E0,-5.302573242E0,-4.457730103E-1,9.573968362E0
1.518076942E1,-8.305778046E0,-5.281018066E0,-4.649331665E-1,9.853489920E0
1.519080942E1,-8.609346771E0,-5.212011566E0,-5.242098999E-1,1.007773350E1
1.520084842E1,-8.879983978E0,-5.102439423E0,-5.917195129E-1,1.025861275E1
1.521088742E1,-9.052874451E0,-4.932243347E0,-6.918612671E-1,1.033248432E1
1.522092742E1,-9.114546204E0,-4.771477661E0,-8.638536072E-1,1.032415588E1
1.523096642E1,-9.196725311E0,-4.664899292E0,-1.025966492E0,1.036309071E1
1.524100542E1,-9.227261810E0,-4.509971466E0,-1.218017120E0,1.034242568E1
1.525104442E1,-9.213340759E0,-4.341871033E0,-1.316512299E0,1.026989273E1
1.526108442E1,-9.334139557E0,-4.181404724E0,-1.344953156E0,1.031596848E1
1.527112342E1,-9.463919678E0,-4.035308533E0,-1.315913544E0,1.037213185E1
1.528116242E1,-9.475745087E0,-3.851939850E0,-1.202150116E0,1.029914319E1
1.529120242E1,-9.420210571E0,-3.657643890E0,-1.049317932E0,1.015971428E1
1.530124142E1,-9.440717926E0,-3.486549683E0,-9.262738037E-1,1.010649132E1
1.531128042E1,-9.560618591E0,-3.325035553E0,-8.463400269E-1,1.015763657E1
1.532132042E1,-9.655521240E0,-3.256777496E0,-7.358697510E-1,1.021651576E1
1.533135942E1,-9.762997742E0,-3.370391235E0,-6.390211487E-1,1.034814041E1
1.534139842E1,-9.905800781E0,-3.590433655E0,-5.460644531E-1,1.055055872E1
1.535143842E1,-1.010773087E1,-3.829935608E0,-4.349954224E-1,1.081775628E1
1.536147742E1,-1.016131943E1,-4.089046783E0,-3.345542908E-1,1.095831386E1
1.537151642E1,-1.004561005E1,-4.285139008E0,-2.421963501E-1,1.092407234E1
1.538155642E1,-9.861343231E0,-4.388873291E0,-1.853146362E-1,1.079549168E1
1.539159542E1,-9.684411163E0,-4.343218231E0,-8.008346558E-2,1.061403682E1
1.540163442E1,-9.685758362E0,-4.153113556E0,1.437011719E-2,1.053861821E1
1.541167342E1,-1.003917343E1,-3.916455688E0,5.388793945E-3,1.077606874E1
1.542171342E1,-1.056428146E1,-3.736978912E0,-1.350192261E-1,1.120657327E1
1.543175242E1,-1.113743958E1,-3.727398834E0,-4.305047607E-1,1.175250598E1
1.544179142E1,-1.167078049E1,-3.835324402E0,-6.915618896E-1,1.230427114E1
1.545183142E1,-1.207134750E1,-4.116290131E0,-8.479866028E-1,1.278203256E1
1.546187042E1,-1.228779739E1,-4.472698975E0,-8.605604553E-1,1.310479169E1
1.547190942E1,-1.233958969E1,-4.810396729E0,-6.718029785E-1,1.326109760E1
1.548194942E1,-1.225172241E1,-5.054389343E0,-2.704875183E-1,1.325611999E1
1.549198842E1,-1.207808350E1,-5.118456116E0,1.249900818E-1,1.311847234E1
1.550202742E1,-1.175834839E1,-4.976401520E0,5.004093933E-1,1.277786126E1
1.551206642E1,-1.127006378E1,-4.567002869E0,9.394464111E-1,1.219649181E1
1.552210642E1,-1.079839462E1,-4.039948883E0,1.409768372E0,1.161524689E1
1.553214542E1,-1.038031403E1,-3.550766144E0,1.775158539E0,1.111350743E1
1.554218442E1,-1.009380981E1,-3.215762787E0,2.076631622E0,1.079530110E1
1.555222442E1,-9.940827942E0,-3.022215271E0,2.390828247E0,1.066160893E1
1.556226342E1,-9.991572418E0,-2.974763947E0,2.583926697E0,1.074045702E1
1.557230242E1,-1.003288651E1,-3.103945312E0,2.592009888E0,1.081719942E1
1.558234242E1,-9.954599304E0,-3.336860962E0,2.448757782E0,1.078077470E1
1.559238142E1,-1.015248779E1,-3.462449799E0,2.261048126E0,1.096238595E1
1.560242042E1,-1.037058426E1,-3.405268707E0,2.053729248E0,1.110687520E1
1.561246042E1,-1.038151154E1,-3.341351624E0,1.836081848E0,1.105945790E1
1.562249942E1,-1.026864624E1,-3.317551117E0,1.589394836E0,1.090767697E1
1.563253842E1,-9.943672028E0,-3.263363800E0,1.355431366E0,1.055288353E1
1.564257742E1,-9.566606140E0,-3.190764771E0,1.176852722E0,1.015312342E1
1.565261742E1,-9.396559753E0,-3.233575745E0,9.859996033E-1,9.986167559E0
1.566265642E1,-9.380992126E0,-3.363505554E0,8.502319336E-1,1.000195367E1
1.567269542E1,-9.615105286E0,-3.529959412E0,9.042695618E-1,1.028243972E1
1.568273542E1,-9.884694672E0,-3.720064087E0,9.800120544E-1,1.060690762E1
1.569277442E1,-1.009874954E1,-3.804488525E0,1.063089294E0,1.084384775E1
1.570281342E1,-1.020233414E1,-3.808081055E0,1.211430817E0,1.095703736E1
1.571285342E1,-1.029050079E1,-3.791764984E0,1.390159149E0,1.105461129E1
1.572289242E1,-1.038166122E1,-3.874842224E0,1.539847870E0,1.118769071E1
1.573293142E1,-1.035890854E1,-4.073179779E0,1.559457092E0,1.123964795E1
1.574297142E1,-1.023631348E1,-4.291875000E0,1.569635925E0,1.121008749E1
1.575301042E1,-1.027298721E1,-4.495002594E0,1.629960480E0,1.133119966E1
1.576304942E1,-1.027762756E1,-4.745731201E0,1.677860870E0,1.144407314E1
1.577308842E1,-1.019993912E1,-5.063071289E0,1.725162506E0,1.151736231E1
1.578312842E1,-1.010488678E1,-5.348228302E0,1.742975464E0,1.156504415E1
1.579316742E1,-9.978848877E0,-5.544470215E0,1.709744568E0,1.154304125E1
1.580320642E1,-9.771529999E0,-5.659281464E0,1.609004059E0,1.140610184E1
1.581324642E1,-9.464817810E0,-5.629343719E0,1.559756470E0,1.112228066E1
1.582328542E1,-9.047485657E0,-5.508694611E0,1.566043396E0,1.070771707E1
1.583332442E1,-8.671467590E0,-5.352120209E0,1.638193359E0,1.032100859E1
1.584336442E1,-8.482859802E0,-5.260361023E0,1.713786163E0,1.012755506E1
1.585340342E1,-8.521030426E0,-5.314847717E0,1.832938385E0,1.020858604E1
1.586344242E1,-8.605754242E0,-5.504802704E0,1.888622589E0,1.038887646E1
1.587348242E1,-8.497678986E0,-5.660628662E0,1.943708038E0,1.039380902E1
1.588352142E1,-8.245004425E0,-5.655539246E0,2.018702087E0,1.020001864E1
1.589356042E1,-7.863896942E0,-5.505700836E0,2.055226135E0,9.817207917E0
1.590360042E1,-7.501949615E0,-5.343887329E0,2.040856018E0,9.434059206E0
1.591363942E1,-7.233108673E0,-5.200186157E0,2.077978821E0,9.147556675E0
1.592367842E1,-7.061715088E0,-5.103936310E0,2.164349213E0,8.977883567E0
1.593371742E1,-6.948550415E0,-5.123844910E0,2.125579834E0,8.891244523E0
1.594375742E1,-6.807992706E0,-5.233417053E0,1.980531464E0,8.812486801E0
1.595379642E1,-6.713389435E0,-5.441035309E0,1.764680328E0,8.819782287E0
1.596383542E1,-6.687193909E0,-5.689967651E0,1.543889465E0,8.915037236E0
1.597387542E1,-6.679559784E0,-5.890700226E0,1.461710358E0,9.025157352E0
1.598391442E1,-6.806346130E0,-6.078110504E0,1.513203278E0,9.249841031E0
1.599395342E1,-7.053033142E0,-6.361770630E0,1.471140747E0,9.611537710E0
1.600399342E1,-7.343578949E0,-6.744225311E0,1.325792999E0,1.005835244E1
1.601403242E1,-7.610773315E0,-7.078180847E0,1.129700775E0,1.045469935E1
1.602407142E1,-7.727829895E0,-7.261100464E0,9.954299927E-1,1.065053124E1
1.603411142E1,-7.807164917E0,-7.318580933E0,8.830137634E-1,1.073746545E1
1.604415042E1,-7.831564178E0,-7.310946808E0,7.738906860E-1,1.074161289E1
1.605418942E1,-7.913443909E0,-7.370073853E0,6.580316162E-1,1.083390921E1
1.606422842E1,-8.133636017E0,-7.646249542E0,4.923262024E-1,1.117423608E1
1.607426842E1,-8.396190033E0,-7.944279785E0,3.366499329E-1,1.156377627E1
1.608430742E1,-8.709638214E0,-8.150401154E0,3.029699707E-1,1.193225157E1
1.609434579E1,-9.008117523E0,-8.301886139E0,3.188369751E-1,1.225435236E1
1.610438579E1,-9.152267761E0,-8.344098358E0,3.586541748E-1,1.239018222E1
1.611442479E1,-9.066945190E0,-8.165669403E0,4.891827393E-1,1.221175465E1
1.612446379E1,-8.757089539E0,-7.765401764E0,6.312373352E-1,1.172120055E1
1.613450379E1,-8.306526489E0,-7.204069061E0,7.463479614E-1,1.102061834E1
1.614454279E1,-7.901169434E0,-6.672075348E0,8.421487427E-1,1.037565817E1
1.615458179E1,-7.676037598E0,-6.232140198E0,9.057664490E-1,9.928823571E0
1.616462179E1,-7.500901794E0,-5.852978668E0,9.608518982E-1,9.562642072E0
1.617466079E1,-7.282805328E0,-5.641767883E0,1.006506958E0,9.267246331E0
1.618469979E1,-7.135661316E0,-5.648204498E0,9.096583557E-1,9.145892783E0
1.619473979E1,-7.117399292E0,-5.860163727E0,6.670129395E-1,9.243581441E0
1.620477879E1,-7.113806763E0,-6.120771790E0,4.403842163E-1,9.394893944E0
1.621481779E1,-7.106621704E0,-6.241271210E0,3.240760803E-1,9.463749979E0
1.622485679E1,-7.163653107E0,-6.229894867E0,2.827619934E-1,9.497866615E0
1.623489679E1,-7.359146576E0,-6.114933929E0,1.830693054E-1,9.569899146E0
1.624493579E1,-7.452702026E0,-5.994883575E0,-7.334747314E-3,9.564593581E0
1.625497479E1,-7.515870667E0,-5.998476105E0,-1.945953369E-1,9.618102453E0
1.626501479E1,-7.650440826E0,-6.061045990E0,-3.778143311E-1,9.767715547E0
1.627505379E1,-7.682324524E0,-6.063590698E0,-4.731660461E-1,9.798424789E0
1.628509279E1,-7.497009888E0,-6.012397156E0,-3.646417236E-1,9.617018270E0
1.629513279E1,-7.284002838E0,-5.923182678E0,-1.059796143E-1,9.388930826E0
1.630517179E1,-7.102580109E0,-5.869145050E0,1.257385254E-1,9.214625223E0
1.631521079E1,-7.037315826E0,-5.865851898E0,3.378474426E-1,9.167670011E0
1.632525079E1,-7.168592834E0,-5.912704468E0,4.929249573E-1,9.305470024E0
1.633528979E1,-7.461533661E0,-5.985453186E0,5.110372925E-1,9.579211530E0
1.634532879E1,-7.695048065E0,-5.941444702E0,4.665797424E-1,9.733048162E0
1.635536779E1,-7.713908844E0,-5.829926605E0,4.161346436E-1,9.678099086E0
1.636540779E1,-7.783514099E0,-5.733377380E0,2.737806702E-1,9.671073558E0
1.637544679E1,-7.963290253E0,-5.606591034E0,3.847000122E-2,9.739062307E0
1.638548579E1,-8.153843994E0,-5.485792236E0,-1.778302002E-1,9.829074825E0
1.639552579E1,-8.433911591E0,-5.507497101E0,-2.853067017E-1,1.007694343E1
1.640556479E1,-8.767118683E0,-5.506000214E0,-3.192860413E-1,1.035762289E1
1.641560379E1,-9.027427368E0,-5.392536163E0,-3.405418396E-1,1.052092486E1
1.642564379E1,-9.061406708E0,-5.187911682E0,-4.122427368E-1,1.044956761E1
1.643568279E1,-9.066645813E0,-4.944068756E0,-5.610333252E-1,1.034227444E1
1.644572179E1,-9.027277679E0,-4.693040771E0,-6.774911499E-1,1.019683128E1
1.645576179E1,-9.056466980E0,-4.441563721E0,-7.250921631E-1,1.011300356E1
1.646580079E1,-9.150770874E0,-4.221970367E0,-7.559280396E-1,1.010609067E1
1.647583979E1,-9.269174652E0,-4.048331451E0,-7.777825928E-1,1.014453212E1
1.648587979E1,-9.404044189E0,-3.908372498E0,-8.608598328E-1,1.022020070E1
