"Time (s)","Acceleration x (m/s^2)","Acceleration y (m/s^2)","Acceleration z (m/s^2)","Absolute acceleration (m/s^2)"
-2.129166387E-5,-1.943408661E0,4.528083801E0,8.650361481E0,9.955357044E0
9.953708388E-3,-2.016456757E0,4.590054932E0,8.021968231E0,9.459739765E0
1.992770843E-2,-1.972448273E0,4.760700073E0,7.688461761E0,9.255661059E0
2.990170848E-2,-1.990261230E0,4.772525482E0,7.927963715E0,9.465238925E0
3.987570852E-2,-2.113754425E0,4.774920502E0,8.339158630E0,9.839176298E0
4.984970833E-2,-2.132465515E0,4.867877197E0,8.825497284E0,1.030208910E1
5.982370838E-2,-2.167492676E0,4.821922760E0,9.436526642E0,1.081651509E1
6.979770842E-2,-2.219883728E0,4.745132446E0,9.885293427E0,1.118763567E1
7.977270847E-2,-2.234852600E0,4.469705200E0,9.894873505E0,1.108518617E1
8.974670852E-2,-2.357447662E0,4.215683441E0,9.607471161E0,1.075328082E1
9.972070833E-2,-2.522853699E0,4.753964081E0,9.434131622E0,1.086129848E1
1.096947084E-1,-2.562521210E0,5.177732849E0,9.177116089E0,1.084411786E1
1.196687084E-1,-2.756068726E0,5.095404053E0,8.944200439E0,1.065634922E1
1.296427085E-1,-2.952310638E0,4.915029144E0,9.191785583E0,1.083340075E1
1.396167085E-1,-2.924468536E0,4.785548401E0,9.980495453E0,1.144833085E1
1.495907083E-1,-3.004552002E0,4.544549561E0,1.065424438E1,1.196633556E1
1.595657084E-1,-4.022584991E0,4.066892853E0,1.048210236E1,1.194132645E1
1.695397084E-1,-5.135969696E0,3.934118958E0,9.815987549E0,1.175623614E1
1.795137085E-1,-4.761149139E0,3.611240387E0,9.867630157E0,1.153601852E1
1.894877085E-1,-4.905748444E0,2.700234833E0,9.756561127E0,1.124936091E1
1.994617083E-1,-4.593198395E0,2.246977386E0,9.777816925E0,1.103413262E1
2.094357084E-1,-3.796704712E0,2.283351746E0,1.005264542E1,1.098564253E1
2.194097084E-1,-3.343147888E0,2.178419952E0,1.028705795E1,1.103384396E1
2.293837084E-1,-2.930156708E0,2.098037109E0,1.025487488E1,1.086968430E1
2.393587085E-1,-2.464175720E0,1.899250488E0,1.008348129E1,1.055253095E1
2.493327083E-1,-1.931433563E0,1.708696747E0,9.827363892E0,1.016007683E1
2.593067084E-1,-1.659898224E0,1.648072815E0,9.555080109E0,9.837223287E0
2.692807084E-1,-1.730551300E0,1.693278809E0,9.215586090E0,9.528327655E0
2.792547084E-1,-1.967807922E0,1.677860870E0,8.761280823E0,9.134961783E0
2.892287085E-1,-2.266137543E0,1.870360565E0,8.328530731E0,8.831650590E0
2.992027085E-1,-2.604134674E0,2.127974854E0,8.120613098E0,8.789434081E0
3.091767083E-1,-3.093916168E0,2.073637848E0,7.998018036E0,8.822731078E0
3.191517084E-1,-3.558100891E0,1.904639282E0,7.982899475E0,8.945077796E0
3.291257084E-1,-3.944597168E0,1.677860870E0,7.988887024E0,9.066277064E0
3.390997085E-1,-3.951931915E0,1.725611572E0,8.316256256E0,9.367796928E0
3.490737085E-1,-4.166286163E0,1.593885498E0,8.962911530E0,1.001160299E1
3.590477083E-1,-4.386328583E0,1.316961365E0,9.229656830E0,1.030343782E1
3.690217084E-1,-4.172273712E0,1.275497589E0,9.337133331E0,1.030615451E1
3.789957084E-1,-3.634292450E0,1.403331757E0,9.600735168E0,1.036105870E1
3.889707085E-1,-3.106490021E0,1.397344208E0,9.946216736E0,1.051332861E1
3.989447085E-1,-2.800376587E0,1.326541443E0,1.029304550E1,1.074935379E1
4.089187083E-1,-2.751578064E0,1.148561554E0,1.081965042E1,1.122297691E1
4.188927084E-1,-2.704725494E0,8.491841125E-1,1.127245880E1,1.162346683E1
4.288667084E-1,-2.723436584E0,5.562432861E-1,1.128129044E1,1.161869301E1
4.388407085E-1,-2.664459229E0,4.424798584E-1,1.089733887E1,1.122707111E1
4.488147085E-1,-2.481240234E0,4.412823486E-1,1.037746994E1,1.067909947E1
4.587887083E-1,-2.179916840E0,5.641767883E-1,9.928553467E0,1.018069285E1
4.687637084E-1,-1.760189667E0,9.333091736E-1,9.626182251E0,9.830194220E0
4.787377084E-1,-1.257684631E0,1.332079926E0,9.528285828E0,9.702805696E0
4.887117085E-1,-9.629475403E-1,1.522034912E0,9.303303680E0,9.476039131E0
4.986857085E-1,-7.000941467E-1,1.678908691E0,9.043743439E0,9.224866481E0
5.086597083E-1,-3.791615295E-1,1.914818115E0,8.675060120E0,8.891960411E0
5.186337084E-1,-2.996768188E-1,2.110760651E0,8.289312286E0,8.559077924E0
5.286077084E-1,-3.960763550E-1,2.109563141E0,7.774832153E0,8.065677165E0
5.385817084E-1,-3.382965088E-1,2.193388824E0,7.329508209E0,7.658138785E0
5.485567085E-1,-4.189787292E-1,2.379152527E0,7.181765442E0,7.577180530E0
5.585307083E-1,-6.818321228E-1,2.486629028E0,7.459138641E0,7.892209338E0
5.685047084E-1,-9.916877747E-1,2.500550079E0,7.879614258E0,8.326134529E0
5.784787084E-1,-1.284029846E0,2.345023499E0,8.002359009E0,8.437156960E0
5.884528751E-1,-1.313368835E0,2.090402985E0,8.077053680E0,8.445917268E0
5.984268752E-1,-1.221310272E0,1.992207184E0,8.236621857E0,8.561683704E0
6.084008750E-1,-1.200054474E0,1.905387726E0,8.349187775E0,8.647518119E0
6.183748750E-1,-1.205293579E0,1.805695038E0,8.425678711E0,8.700880928E0
6.283498751E-1,-1.302291870E0,1.578916626E0,8.562344513E0,8.803560949E0
6.383238751E-1,-1.841770020E0,5.315446472E-1,8.502319336E0,8.715738099E0
6.482978752E-1,-5.342390442E-1,1.379531250E0,9.330996094E0,9.447539676E0
6.582718750E-1,-1.428030396E-1,2.245031433E0,9.672585754E0,9.930733811E0
6.682458750E-1,-3.543132019E-1,1.504072266E0,9.951156464E0,1.007041639E1
6.782198751E-1,-4.596940613E-1,1.348845062E0,1.024768982E1,1.034629635E1
6.881938751E-1,-4.090992737E-1,1.975292358E0,1.080063995E1,1.098740031E1
6.981678752E-1,-4.264631653E-1,2.153122559E0,1.139984390E1,1.160923118E1
7.081418750E-1,-4.873864746E-1,2.452799377E0,1.178110107E1,1.204359219E1
7.181168750E-1,-3.420387268E-1,2.787054291E0,1.231040039E1,1.262658386E1
7.280908751E-1,-1.416055298E-1,3.291954346E0,1.284898041E1,1.326473946E1
7.380648751E-1,-2.242337036E-1,3.927532654E0,1.355670868E1,1.411595352E1
7.480388752E-1,-4.740641785E-1,4.234843597E0,1.461410980E1,1.522270812E1
7.580128750E-1,-6.572831726E-1,4.473746796E0,1.576476700E1,1.640043628E1
7.679868750E-1,-1.459465027E0,4.407135315E0,1.760803391E1,1.820977040E1
7.779608751E-1,-1.913021851E0,4.557123413E0,1.935220688E1,1.997335569E1
7.879348751E-1,-1.540446625E0,5.337001648E0,2.045795746E1,2.119869302E1
7.979098752E-1,-1.897454224E0,4.966971130E0,2.102976837E1,2.169152582E1
8.078838750E-1,-3.025658112E0,3.609294434E0,2.040391983E1,2.094042879E1
8.178578750E-1,-3.727249146E0,2.357297974E0,1.892319901E1,1.943030367E1
8.278318751E-1,-3.903881836E0,1.482517090E0,1.743664032E1,1.792971210E1
8.378058751E-1,-3.476071472E0,1.706900482E0,1.617446503E1,1.663159346E1
8.477798752E-1,-2.438578949E0,3.173700256E0,1.536704407E1,1.587970667E1
8.577538750E-1,-1.994003448E0,3.791465607E0,1.494611938E1,1.554791773E1
8.677278750E-1,-1.925595703E0,2.924767914E0,1.427401703E1,1.469727010E1
8.777028751E-1,-1.835632782E0,2.070344696E0,1.372361160E1,1.399976394E1
8.876768751E-1,-1.555714874E0,1.773661652E0,1.317560120E1,1.338516310E1
8.976508752E-1,-1.876348114E0,1.203048248E0,1.272503815E1,1.291876941E1
9.076248752E-1,-2.336790619E0,6.539900208E-1,1.202958435E1,1.227188628E1
9.175988750E-1,-2.554138641E0,5.325924683E-1,1.107412125E1,1.137732132E1
9.275728751E-1,-2.920876007E0,2.622546387E-1,9.992769928E0,1.041420880E1
9.375468751E-1,-3.199596405E0,4.490661621E-3,8.626111908E0,9.200393686E0
9.475208751E-1,-3.013982391E0,2.034269714E-1,7.093449097E0,7.709895750E0
9.574948752E-1,-2.381547546E0,5.390290833E-1,5.664670258E0,6.168533877E0
9.674698750E-1,-2.126927032E0,5.542973328E-1,4.147874451E0,4.694243985E0
9.774438750E-1,-1.712738342E0,5.490582275E-1,2.564916229E0,3.132687796E0
9.874178751E-1,-1.209484863E0,6.313870239E-1,1.359922028E0,1.926367340E0
9.973918751E-1,-6.370751953E-1,8.219407654E-1,3.977229309E-1,1.113388951E0
1.007365875E0,-1.055305481E-1,9.753717041E-1,-5.992039490E-1,1.149579067E0
1.017339875E0,1.469943237E-1,8.887019348E-1,-1.279988251E0,1.565173595E0
1.027313875E0,3.838018799E-1,8.237370300E-1,-1.555565186E0,1.801563106E0
1.037287875E0,3.387455750E-1,8.126600647E-1,-1.760339355E0,1.968237687E0
1.047261875E0,-1.516346741E-1,6.716532898E-1,-2.013762360E0,2.128226975E0
1.057236875E0,-6.553372192E-1,6.162684631E-1,-2.148033142E0,2.328797988E0
1.067210875E0,-1.069825287E0,6.873706055E-1,-1.861379242E0,2.254270875E0
1.077184875E0,-1.429227905E0,7.478448486E-1,-1.462758179E0,2.177527454E0
1.087158875E0,-1.496587830E0,7.544311523E-1,-1.351539459E0,2.153044450E0
1.097132875E0,-1.398691406E0,6.408174133E-1,-1.109193420E0,1.896653540E0
1.107106875E0,-9.172924805E-1,6.071374512E-1,-6.560856628E-1,1.280816059E0
1.117080875E0,-3.206332397E-1,5.788462830E-1,-1.236428833E-1,6.731688171E-1
1.127054875E0,4.758604431E-1,6.611750793E-1,4.340972900E-1,9.230580177E-1
1.137028875E0,1.075214081E0,6.797364807E-1,1.208886108E0,1.754859717E0
1.147003875E0,1.571132813E0,9.931846619E-1,2.336640930E0,2.985760359E0
1.156977875E0,1.913021851E0,1.728006592E0,3.526965637E0,4.368654940E0
1.166951875E0,1.856738892E0,2.406096497E0,4.374952240E0,5.327005422E0
1.176925875E0,1.258133698E0,2.763553162E0,5.479355621E0,6.264460432E0
1.186899875E0,4.005670166E-1,3.456013184E0,6.328240356E0,7.221572340E0
1.196873875E0,-5.104385376E-2,4.534071350E0,6.854845276E0,8.218838862E0
1.206847875E0,-1.407073975E-1,5.557044067E0,7.513924713E0,9.346635862E0
1.216821875E0,-3.269201660E-1,6.188431091E0,8.192164307E0,1.027205492E1
1.226796875E0,-7.888595581E-1,6.374494171E0,9.175020447E0,1.119988730E1
1.236770875E0,-1.370250549E0,6.574478302E0,1.065993256E1,1.259902828E1
1.246744875E0,-9.177415466E-1,8.002209320E0,1.203033279E1,1.447779371E1
1.256718875E0,1.495390320E-1,1.009949799E1,1.188259003E1,1.559545342E1
1.266692875E0,1.281934204E0,9.724078674E0,1.422581726E1,1.727932111E1
1.276666875E0,1.167572021E0,1.003498215E1,1.563274155E1,1.861307872E1
1.286640875E0,-9.862989807E-1,9.034313049E0,1.673474991E1,1.904319964E1
1.296614875E0,-3.255879364E0,7.608677673E0,1.816008591E1,1.995698992E1
1.306588875E0,-4.496050415E0,7.096891937E0,2.117885834E1,2.278430128E1
1.316562875E0,-4.553830261E0,6.695576477E0,2.376353348E1,2.510525120E1
1.326537875E0,-3.551364899E0,6.680757294E0,2.474594055E1,2.587675181E1
1.336511875E0,-2.366129608E0,6.802603912E0,2.469369919E1,2.572261202E1
1.346485875E0,-1.809586945E0,7.061266022E0,2.363001114E1,2.472879919E1
1.356459875E0,-1.916015625E0,7.401957550E0,2.124307480E1,2.257716365E1
1.366433875E0,-2.236199799E0,7.286547546E0,1.809347443E1,1.963334361E1
1.376407875E0,-2.205962677E0,7.303312683E0,1.488564514E1,1.672683708E1
1.386381875E0,-2.170336761E0,7.387437744E0,1.215262848E1,1.438648592E1
1.396355875E0,-1.967209167E0,7.419171753E0,9.824819183E0,1.246760175E1
1.406329875E0,-1.824705505E0,7.222331085E0,7.791746979E0,1.077974663E1
1.416304875E0,-1.870510254E0,6.658453674E0,5.970184937E0,9.136570589E0
1.426278875E0,-1.893562317E0,5.936804352E0,4.124822388E0,7.472976909E0
1.436252875E0,-2.045496368E0,5.057682495E0,2.647095337E0,6.063936126E0
1.446226875E0,-2.310894470E0,3.893703003E0,2.010020142E0,4.953921406E0
1.456200875E0,-2.441572723E0,2.813848572E0,1.762884064E0,4.121502320E0
1.466174875E0,-2.563718719E0,1.916913757E0,1.886526947E0,3.715668977E0
1.476148875E0,-2.553988953E0,1.279988251E0,2.483635254E0,3.785455530E0
1.486122875E0,-2.267484741E0,9.186396790E-1,3.103496246E0,3.951844489E0
1.496096875E0,-1.958527222E0,7.400610352E-1,3.639681244E0,4.198904473E0
1.506071875E0,-1.693129120E0,7.999365234E-1,3.990701294E0,4.408206152E0
1.516045875E0,-1.409468994E0,9.083111572E-1,4.103117523E0,4.432516826E0
1.526019875E0,-1.190175018E0,1.014590149E0,3.946692810E0,4.245267233E0
1.535993875E0,-9.288185120E-1,1.189875641E0,3.442391510E0,3.758798635E0
1.545967875E0,-4.887336731E-1,1.391955414E0,2.647394714E0,3.030692866E0
1.555941875E0,-1.707948303E-1,1.353784790E0,1.602268066E0,2.104558645E0
1.565915875E0,1.212478638E-1,1.169068909E0,5.069956970E-1,1.280026482E0
1.575889875E0,4.358935547E-1,1.235530701E0,-3.939807129E-1,1.368122840E0
1.585863875E0,5.776487732E-1,1.250649261E0,-1.187779999E0,1.818962068E0
1.595837333E0,4.028123474E-1,1.270707550E0,-1.497336273E0,2.004737235E0
1.605812334E0,-6.242019653E-2,1.197360077E0,-1.362017670E0,1.814568700E0
1.615786333E0,-5.924679565E-1,1.115480347E0,-9.933343506E-1,1.606868948E0
1.625760333E0,-1.040785675E0,1.116378479E0,-5.992039490E-1,1.639689331E0
1.635734333E0,-1.102008362E0,1.306483154E0,6.960525513E-2,1.710603856E0
1.645708333E0,-1.153650970E0,1.285975800E0,8.312214661E-1,1.917178511E0
1.655682334E0,-8.394543457E-1,1.441951447E0,1.332678680E0,2.135401610E0
1.665656333E0,-3.620970154E-1,1.736239471E0,1.914069672E0,2.609464401E0
1.675630333E0,4.685256958E-2,1.948348389E0,2.551743622E0,3.210864699E0
1.685604333E0,6.724017334E-1,2.446662140E0,3.421584778E0,4.259756109E0
1.695579333E0,1.235231323E0,2.897075500E0,5.126389618E0,6.016536661E0
1.705553334E0,1.748963013E0,3.440744934E0,7.585026855E0,8.510595145E0
1.715527333E0,2.061962128E0,4.242178345E0,9.994715881E0,1.105179218E1
1.725501333E0,1.768123169E0,4.807702332E0,1.223675354E1,1.326568500E1
1.735475333E0,7.111711121E-1,5.298232269E0,1.372421036E1,1.472857697E1
1.745449333E0,-1.373843079E0,5.191653900E0,1.498189499E1,1.591533514E1
1.755423333E0,-3.636238403E0,4.871320038E0,1.713097595E1,1.817752254E1
1.765397333E0,-5.197192383E0,5.054988098E0,1.941268112E1,2.072235271E1
1.775371333E0,-5.780529327E0,5.708379364E0,2.109203888E1,2.260252681E1
1.785345333E0,-5.443130951E0,6.508315887E0,2.183763840E1,2.342793847E1
1.795320333E0,-4.840783539E0,7.081923065E0,2.136671768E1,2.302440974E1
1.805294333E0,-4.498295746E0,7.203619995E0,2.030961594E1,2.201379806E1
1.815268333E0,-4.904550934E0,7.160958710E0,1.944681015E1,2.129582998E1
1.825242333E0,-5.435347137E0,7.037166138E0,1.902154449E1,2.099723460E1
1.835216333E0,-5.713319092E0,6.569688263E0,1.876497803E1,2.068640180E1
1.845190333E0,-5.660628662E0,6.222560120E0,1.863804199E1,2.044846157E1
1.855164333E0,-5.417983246E0,6.159990234E0,1.828238159E1,2.003860022E1
1.865138334E0,-5.167404327E0,5.996230774E0,1.721465195E1,1.894732415E1
1.875112333E0,-4.731061707E0,5.969137115E0,1.572450073E1,1.747207675E1
1.885086333E0,-4.243226166E0,5.997727661E0,1.430560135E1,1.608191330E1
1.895061333E0,-3.840862885E0,5.880671082E0,1.280721725E1,1.460682491E1
1.905035333E0,-3.324736176E0,5.701493683E0,1.121767273E1,1.301526344E1
1.915009334E0,-2.705623627E0,5.471272430E0,9.853858795E0,1.159110669E1
1.924983333E0,-2.207160187E0,5.089416504E0,8.674161987E0,1.029634899E1
1.934957333E0,-1.773212585E0,4.699477386E0,7.623496857E0,9.129461918E0
1.944931333E0,-1.464255066E0,4.319268036E0,6.804549866E0,8.191582151E0
1.954905333E0,-1.331032104E0,3.879332886E0,6.105054474E0,7.354764458E0
1.964879334E0,-1.249900818E0,3.397185516E0,5.494773560E0,6.579943614E0
1.974853333E0,-1.202599182E0,2.955753479E0,4.984484711E0,5.918429796E0
1.984827333E0,-1.204994202E0,2.487078094E0,4.505031738E0,5.285156520E0
1.994802333E0,-1.588496704E0,1.888173523E0,4.280199280E0,4.940508770E0
2.004776333E0,-2.377356262E0,1.587748260E0,4.594695282E0,5.411468569E0
2.014750334E0,-2.933449860E0,1.636846161E0,5.219046936E0,6.206677400E0
2.024724333E0,-3.083288269E0,1.776805115E0,5.602848816E0,6.637440608E0
2.034698333E0,-3.097209320E0,1.936073914E0,5.451663208E0,6.562142905E0
2.044672333E0,-3.197800140E0,1.891017609E0,5.182822266E0,6.376795431E0
2.054646333E0,-3.189866638E0,1.864672394E0,5.033133545E0,6.243771744E0
2.064620333E0,-2.988086243E0,2.114502869E0,5.054089966E0,6.240481324E0
2.074594333E0,-2.830913086E0,2.142943726E0,5.204227753E0,6.300020890E0
2.084568333E0,-2.442021790E0,2.136058044E0,5.280269623E0,6.197375386E0
2.094542333E0,-2.198777618E0,2.199226685E0,5.364843750E0,6.201029712E0
2.104517333E0,-2.243684235E0,2.188898163E0,5.567222900E0,6.389003438E0
2.114491333E0,-2.340532837E0,2.258952484E0,5.669909363E0,6.536729493E0
2.124465333E0,-2.586471405E0,2.171234894E0,5.850733337E0,6.755381253E0
2.134439333E0,-2.945275269E0,2.132465515E0,6.109245758E0,7.109496418E0
2.144413333E0,-3.066223755E0,2.323318634E0,6.204597473E0,7.300449808E0
2.154387333E0,-2.941383362E0,2.544259186E0,6.399342499E0,7.488429428E0
2.164361333E0,-2.616109772E0,2.893482971E0,6.694229279E0,7.747837097E0
2.174335334E0,-2.172282715E0,3.437900848E0,6.778953094E0,7.905199523E0
2.184309333E0,-1.785936127E0,3.909869385E0,6.897057495E0,8.126872003E0
2.194283333E0,-1.642085266E0,4.259392548E0,7.154073029E0,8.486437992E0
2.204258333E0,-1.661844177E0,4.533921661E0,7.555837555E0,8.967098352E0
2.214232333E0,-2.013013916E0,4.609364777E0,8.090525665E0,9.526545765E0
2.224206334E0,-2.636617126E0,4.319417725E0,8.899443512E0,1.023763714E1
2.234180333E0,-3.529809723E0,3.534300385E0,1.054437286E1,1.166767479E1
2.244154333E0,-4.688999176E0,2.666854248E0,1.266920425E1,1.376980615E1
2.254128333E0,-5.977968750E0,1.950893097E0,1.473071732E1,1.601674520E1
2.264102333E0,-6.663992157E0,1.625170441E0,1.614841919E1,1.754484006E1
2.274076334E0,-6.783593445E0,1.567390594E0,1.708322525E1,1.844750493E1
2.284050333E0,-6.669380951E0,1.570534058E0,1.718636078E1,1.850184359E1
2.294024333E0,-5.535339203E0,2.590363312E0,1.561103668E1,1.676467800E1
2.303998333E0,-4.447551270E0,2.910248108E0,1.381192795E1,1.479931113E1
2.313973333E0,-4.246219940E0,2.736309814E0,1.216146011E1,1.316886052E1
2.323947333E0,-4.511468353E0,2.749931488E0,1.129640900E1,1.247093926E1
2.333921333E0,-5.216801605E0,2.562221832E0,1.149324966E1,1.287923862E1
2.343895333E0,-6.069727936E0,2.072140961E0,1.232671646E1,1.389544185E1
2.353869333E0,-6.486611023E0,1.378932495E0,1.339309891E1,1.494498831E1
2.363843333E0,-5.865702209E0,9.095086670E-1,1.394694717E1,1.515753951E1
2.373817333E0,-4.567901001E0,7.864645386E-1,1.357541977E1,1.434490390E1
2.383791334E0,-3.115621033E0,7.716453552E-1,1.252086273E1,1.292573149E1
2.393765333E0,-1.853595428E0,8.234376526E-1,1.092458221E1,1.111127185E1
2.403739333E0,-9.108558655E-1,1.077309723E0,9.207951965E0,9.315397686E0
2.413713333E0,-4.388873291E-1,1.395847321E0,7.782765656E0,7.919119464E0
2.423688333E0,-3.055146790E-1,1.738185425E0,6.693630524E0,6.922378015E0
2.433662334E0,-3.046165466E-1,2.137255554E0,5.950875092E0,6.330368623E0
2.443636333E0,-5.143304443E-1,2.413580933E0,5.581293640E0,6.102519760E0
2.453610333E0,-9.806108093E-1,2.590662689E0,5.413941650E0,6.081438557E0
2.463584333E0,-1.450184326E0,2.884202271E0,5.194048920E0,6.115537711E0
2.473558333E0,-1.762285309E0,3.234024811E0,5.139562225E0,6.322947561E0
2.483532334E0,-1.926643524E0,3.556304626E0,5.169499969E0,6.563763235E0
2.493506333E0,-2.103425903E0,3.776496735E0,5.100044403E0,6.685565124E0
2.503480333E0,-2.354603577E0,3.874393158E0,5.007985840E0,6.755368422E0
2.513454333E0,-2.766546936E0,3.846251678E0,5.091212769E0,6.954702106E0
2.523428333E0,-3.219954071E0,3.923640747E0,5.239703979E0,7.295036581E0
2.533402334E0,-3.758534088E0,3.911066895E0,5.517675934E0,7.737426604E0
2.543377333E0,-4.348906403E0,3.661984863E0,6.248156891E0,8.447637810E0
2.553351333E0,-4.738097076E0,3.363206177E0,7.111711121E0,9.183526270E0
2.563325333E0,-4.959786072E0,2.960842896E0,7.880512390E0,9.770800584E0
2.573299333E0,-5.018763428E0,2.523302765E0,8.581804047E0,1.025682231E1
2.583273333E0,-4.781656494E0,2.302811279E0,9.152716827E0,1.058014196E1
2.593247458E0,-4.334236908E0,2.150877228E0,9.583520966E0,1.073572338E1
2.603221458E0,-3.689078522E0,2.056273956E0,9.720037079E0,1.059795658E1
2.613195458E0,-3.065924377E0,1.986968079E0,9.499545593E0,1.017788293E1
2.623169458E0,-2.724035339E0,1.957479401E0,9.113199005E0,9.710946928E0
2.633143459E0,-2.719544678E0,1.996548157E0,8.547675018E0,9.189389317E0
2.643117458E0,-2.691253510E0,2.138153687E0,7.865842896E0,8.584056797E0
2.653092458E0,-2.684218140E0,2.328557739E0,7.184310150E0,8.015080817E0
2.663066458E0,-2.739752655E0,2.445314941E0,6.554270325E0,7.512940121E0
2.673040458E0,-2.657723236E0,2.573598175E0,5.958958282E0,7.013992029E0
2.683014459E0,-2.516417084E0,2.721191254E0,5.387596436E0,6.539375515E0
2.692988458E0,-2.406994629E0,2.784659271E0,4.967569885E0,6.182612794E0
2.702962458E0,-2.330952759E0,2.768343201E0,4.707261200E0,5.937623501E0
2.712936458E0,-2.257455597E0,2.702629852E0,4.641398163E0,5.826052763E0
2.722910458E0,-2.171534271E0,2.688708801E0,4.848118286E0,5.953903512E0
2.732884458E0,-1.964065704E0,2.892285461E0,5.465584259E0,6.488103003E0
2.742858458E0,-1.984123993E0,3.040327606E0,6.227948914E0,7.208861744E0
2.752832458E0,-1.996548157E0,3.108585663E0,6.926546173E0,7.850258037E0
2.762807458E0,-1.728156281E0,3.404071198E0,7.954159241E0,8.822860878E0
2.772781458E0,-1.565145264E0,3.772305450E0,9.510921936E0,1.035072964E1
2.782755458E0,-1.701960754E0,4.174219666E0,1.119447098E1,1.206801395E1
2.792729458E0,-2.036814423E0,4.483027496E0,1.287951691E1,1.378869480E1
2.802703458E0,-2.607876892E0,4.612657928E0,1.477307922E1,1.569463299E1
2.812677458E0,-3.421435089E0,4.770280151E0,1.676558578E1,1.776363300E1
2.822651458E0,-4.660109253E0,4.861739960E0,1.832893478E1,1.952698092E1
2.832625458E0,-5.979016571E0,4.985532532E0,1.907034302E1,2.059811051E1
2.842599459E0,-7.008425903E0,5.506598969E0,1.872845398E1,2.074115846E1
2.852573458E0,-8.421487427E0,4.800966339E0,1.792567337E1,2.037892279E1
2.862547458E0,-9.112749939E0,4.013453979E0,1.844883545E1,2.096448315E1
2.872521458E0,-8.551417236E0,4.563110962E0,1.889505753E1,2.123609939E1
2.882496458E0,-7.376360779E0,5.841452637E0,1.847278564E1,2.073106550E1
2.892470459E0,-6.302194519E0,6.290668488E0,1.704834778E1,1.923372891E1
2.902444458E0,-5.578898621E0,5.536985779E0,1.587359070E1,1.771308000E1
2.912418458E0,-4.791535950E0,5.628146210E0,1.548859131E1,1.716191444E1
2.922392458E0,-4.418811035E0,5.598657532E0,1.537707321E1,1.695067071E1
2.932366458E0,-4.488416290E0,4.608466644E0,1.545521072E1,1.674059091E1
2.942340459E0,-4.444108429E0,3.430715790E0,1.584410202E1,1.680938665E1
2.952314458E0,-4.138893127E0,2.337089996E0,1.608989090E1,1.677727675E1
2.962288458E0,-3.893403625E0,1.401535492E0,1.562884964E1,1.616736944E1
2.972262458E0,-3.568579102E0,1.018781433E0,1.440649155E1,1.487681656E1
2.982236458E0,-3.218307495E0,1.006956024E0,1.262220200E1,1.306489368E1
2.992210458E0,-2.796784058E0,1.018931122E0,1.034663406E1,1.076629268E1
3.002185458E0,-2.320624237E0,1.045875092E0,8.123606873E0,8.513057041E0
3.012159458E0,-2.090103607E0,1.058598633E0,6.339167633E0,6.758269781E0
3.022133458E0,-1.922003174E0,1.030457153E0,5.216352539E0,5.653872298E0
3.032107458E0,-1.910177765E0,8.747808838E-1,4.421355743E0,4.895141193E0
3.042081458E0,-1.718725891E0,9.855505371E-1,3.873644714E0,4.350913918E0
3.052055458E0,-1.466799774E0,1.250050507E0,3.472179565E0,3.971165922E0
3.062029458E0,-1.241518250E0,1.556463318E0,2.903661804E0,3.520681397E0
3.072003458E0,-1.300944672E0,1.540596313E0,2.167043610E0,2.960062845E0
3.081977458E0,-1.475631409E0,1.383872223E0,1.462907867E0,2.496535562E0
3.091951458E0,-1.336570587E0,1.397493896E0,5.950126648E-1,2.023227668E0
3.101925459E0,-1.266516266E0,1.396745453E0,-3.802093506E-1,1.923413752E0
3.111899458E0,-1.158141632E0,1.555864563E0,-1.099313965E0,2.229461319E0
3.121873458E0,-1.063388672E0,1.731299744E0,-1.462458801E0,2.503393700E0
3.131848458E0,-8.660989380E-1,1.942061462E0,-1.516646118E0,2.611885438E0
3.141822458E0,-8.322692871E-1,2.100731506E0,-1.301094360E0,2.607410893E0
3.151796459E0,-1.331780548E0,1.753603363E0,-9.123527527E-1,2.383516673E0
3.161770458E0,-1.706002350E0,1.562600555E0,-3.625460815E-1,2.341709669E0
3.171744458E0,-1.877395935E0,1.565744019E0,6.340814209E-1,2.525515606E0
3.181718458E0,-1.942959595E0,1.577270050E0,1.639091492E0,2.991570443E0
3.191692458E0,-2.132166138E0,1.587748260E0,2.504142609E0,3.652096272E0
3.201666459E0,-2.832859039E0,1.024319916E0,3.059338074E0,4.293468420E0
3.211640458E0,-3.820954285E0,3.638932800E-1,3.337908783E0,5.086624127E0
3.221614458E0,-4.453389130E0,-8.292755127E-2,3.566034393E0,5.705799945E0
3.231588458E0,-4.630171509E0,-2.133064270E-1,4.093537445E0,6.183933752E0
3.241562458E0,-4.437222748E0,-1.050814819E-1,4.026327209E0,5.992603660E0
3.251536458E0,-3.693419495E0,1.951940918E-1,3.391946411E0,5.018440869E0
3.261511458E0,-2.522554321E0,6.851252747E-1,3.349734192E0,4.248928818E0
3.271485458E0,-1.690434723E0,1.338217163E0,3.788621521E0,4.359133831E0
3.281459458E0,-1.374292145E0,2.368524628E0,4.906347198E0,5.618792632E0
3.291433458E0,-1.084794159E0,3.090772705E0,5.854026489E0,6.708150298E0
3.301407458E0,-8.309220886E-1,3.715723114E0,6.455775146E0,7.494935792E0
3.311381458E0,-3.384461975E-1,4.619992676E0,8.324938202E0,9.526986628E0
3.321355458E0,-6.541397095E-2,5.338049469E0,1.012434631E1,1.144558602E1
3.331329458E0,-6.447093201E-1,5.608836365E0,1.105166794E1,1.241024011E1
3.341303458E0,-1.080902252E0,5.915997620E0,1.192779602E1,1.335813218E1
3.351277458E0,-8.949888611E-1,6.509513397E0,1.262429764E1,1.423192399E1
3.361251459E0,-7.074288940E-1,7.227420502E0,1.326451630E1,1.512228340E1
3.371225458E0,-5.760021973E-1,8.376730499E0,1.347198486E1,1.587437459E1
3.381200458E0,-7.655081177E-1,9.425599365E0,1.280542099E1,1.591875412E1
3.391174458E0,-1.670526123E0,9.692194977E0,1.264450562E1,1.601913928E1
3.401148458E0,-3.254681854E0,9.251511383E0,1.266052231E1,1.601475076E1
3.411122459E0,-4.938380585E0,7.665559387E0,1.267938309E1,1.561778342E1
3.421096458E0,-5.912554779E0,5.981860657E0,1.317649933E1,1.563205346E1
3.431070458E0,-5.995931396E0,4.926854553E0,1.379216904E1,1.582558106E1
3.441044458E0,-5.640270996E0,4.001778259E0,1.461770233E1,1.617108863E1
3.451018458E0,-5.009033661E0,3.262315979E0,1.543141022E1,1.654876264E1
3.460992459E0,-4.420008545E0,2.865491180E0,1.579530350E1,1.665049933E1
3.470966458E0,-4.005370789E0,2.541265411E0,1.535911057E1,1.607492776E1
3.480940458E0,-3.138972473E0,2.732118530E0,1.422491913E1,1.482113167E1
3.490914458E0,-2.165995789E0,3.173400879E0,1.281979111E1,1.338316311E1
3.500888458E0,-1.562001801E0,3.239413605E0,1.150327881E1,1.205234722E1
3.510863459E0,-1.369951172E0,3.188070374E0,1.039408539E1,1.095799115E1
3.520837458E0,-1.236877899E0,3.363804932E0,9.545949097E0,1.019657760E1
3.530811458E0,-1.115779724E0,3.515589294E0,8.926387482E0,9.658401832E0
3.540785458E0,-1.175206146E0,3.410358124E0,8.232430573E0,8.988023428E0
3.550759458E0,-1.182840271E0,3.269051971E0,7.404651947E0,8.180139507E0
3.560733458E0,-1.079405365E0,3.197201385E0,6.645879822E0,7.453518045E0
3.570707458E0,-8.704399109E-1,3.247945862E0,5.818849640E0,6.720552737E0
3.580681458E0,-6.405180359E-1,3.432811432E0,4.750371552E0,5.895802537E0
3.590655708E0,-5.156776428E-1,3.603905640E0,3.602259064E0,5.121555394E0
3.600629708E0,-6.966513062E-1,3.561094666E0,3.188519440E0,4.830463174E0
3.610603708E0,-1.090033264E0,3.663631439E0,3.443738708E0,5.144871634E0
3.620577708E0,-1.414408722E0,4.056115265E0,3.814218292E0,5.744639611E0
3.630551708E0,-1.765428772E0,4.296964417E0,4.011657715E0,6.137918179E0
3.640526708E0,-2.090702362E0,4.509821777E0,4.210294647E0,6.514300411E0
3.650500708E0,-2.269281006E0,4.873864746E0,4.844825134E0,7.237162733E0
3.660474708E0,-2.561772766E0,5.113067322E0,5.943839722E0,8.248355459E0
3.670448708E0,-2.516716461E0,5.637127533E0,7.261549530E0,9.531063432E0
3.680422708E0,-2.632575531E0,5.820795593E0,8.887169037E0,1.094503946E1
3.690396708E0,-2.987786865E0,5.889652405E0,1.055260574E1,1.244878965E1
3.700370708E0,-3.439996490E0,6.068979492E0,1.236967712E1,1.420123234E1
3.710344709E0,-4.230951691E0,6.052513733E0,1.382929184E1,1.567747389E1
3.720318708E0,-5.562582550E0,5.053491211E0,1.439960587E1,1.624280601E1
3.730292708E0,-6.329138489E0,4.275858307E0,1.444241684E1,1.633782000E1
3.740266708E0,-6.599476318E0,3.710184631E0,1.438328979E1,1.625415587E1
3.750240708E0,-6.161636810E0,3.782783661E0,1.402927597E1,1.578276923E1
3.760214709E0,-5.654790802E0,3.534450073E0,1.360206436E1,1.514876732E1
3.770188708E0,-5.061873779E0,2.931054840E0,1.289104294E1,1.415601062E1
3.780163708E0,-3.981420593E0,2.628683624E0,1.192794571E1,1.284669515E1
3.790137708E0,-2.707419891E0,2.378853149E0,1.092682755E1,1.150585177E1
3.800111708E0,-1.610800323E0,2.143093414E0,9.835896149E0,1.019472315E1
3.810085709E0,-7.472460938E-1,2.029479675E0,8.780740356E0,9.043150208E0
3.820059708E0,-1.302291870E-1,1.919458466E0,7.879913635E0,8.111369757E0
3.830033708E0,2.644999695E-1,1.848655701E0,7.118147736E0,7.359043098E0
3.840007708E0,4.541555786E-1,1.806144104E0,6.441105652E0,6.704942642E0
3.849981708E0,5.478607178E-1,1.793570251E0,5.827082520E0,6.121432537E0
3.859955708E0,5.879772949E-1,1.883832550E0,5.273982697E0,5.631113199E0
3.869929708E0,5.011578369E-1,2.043251038E0,4.638554077E0,5.093350362E0
3.879903708E0,5.551954651E-1,2.293979645E0,3.984114990E0,4.630740424E0
3.889877708E0,7.711962891E-1,2.650089111E0,3.394191742E0,4.374728974E0
3.899851708E0,1.111289062E0,3.076851654E0,2.716999969E0,4.252536692E0
3.909825708E0,1.386566620E0,3.463647308E0,2.066303101E0,4.264859690E0
3.919800708E0,1.584155731E0,3.782783661E0,1.559157715E0,4.387479275E0
3.929774708E0,1.656605072E0,4.047882385E0,1.457818451E0,4.610306585E0
3.939748708E0,1.516945496E0,4.037853241E0,1.860630798E0,4.697587615E0
3.949722708E0,1.362766113E0,4.078418884E0,2.571053467E0,5.010084630E0
3.959696708E0,8.613088989E-1,3.888613586E0,3.670517120E0,5.416259279E0
3.969670709E0,-1.317260742E-2,3.193459167E0,5.191953278E0,6.095468301E0
3.979644708E0,-9.120533752E-1,2.771636353E0,7.120542755E0,7.695189313E0
3.989618708E0,-1.840871887E0,2.482587433E0,9.346414032E0,9.844160956E0
3.999592708E0,-2.745590515E0,2.193388824E0,1.133442993E1,1.186669810E1
4.009566708E0,-3.178939362E0,2.266885986E0,1.286514679E1,1.344456877E1
4.019540709E0,-3.083138580E0,2.871778107E0,1.358754456E1,1.422582933E1
4.029514708E0,-2.414329376E0,3.838018799E0,1.373498795E1,1.446406819E1
4.039488708E0,-1.930535431E0,4.735552368E0,1.347183517E1,1.440981493E1
4.049462708E0,-1.605112152E0,5.890251160E0,1.295361282E1,1.432017908E1
4.059437708E0,-1.575922852E0,7.005282440E0,1.267354523E1,1.456627144E1
4.069411709E0,-2.119442596E0,7.754025421E0,1.282233582E1,1.513371213E1
4.079385708E0,-2.780767365E0,8.164920959E0,1.358978989E1,1.609599300E1
4.089359708E0,-3.208577728E0,8.190966797E0,1.471095840E1,1.714057191E1
4.099333708E0,-3.259771271E0,8.015531616E0,1.585338272E1,1.806113506E1
4.109307708E0,-2.890339508E0,7.678432617E0,1.671798477E1,1.862265837E1
4.119281708E0,-2.457290039E0,7.340435486E0,1.749546799E1,1.913143140E1
4.129255708E0,-2.343676300E0,6.973548431E0,1.833567078E1,1.975651840E1
4.139229708E0,-2.412682800E0,6.709946594E0,1.891766052E1,2.021688159E1
4.149203708E0,-2.213297424E0,6.520590363E0,1.891287048E1,2.012743039E1
4.159177708E0,-1.701212311E0,6.149661713E0,1.827654373E1,1.935831897E1
4.169151708E0,-1.144819336E0,5.510341187E0,1.727093491E1,1.816479187E1
4.179125709E0,-8.181985474E-1,4.541406097E0,1.617955444E1,1.682473775E1
4.189099708E0,-4.581971741E-1,3.747457123E0,1.509700562E1,1.556190728E1
4.199073708E0,-2.706372070E-1,2.999612274E0,1.396041916E1,1.428160430E1
4.209048708E0,-1.938468933E-1,2.219434662E0,1.277757889E1,1.297035038E1
4.219022708E0,-4.049079895E-1,1.561852112E0,1.154040161E1,1.165264785E1
4.228996709E0,-7.900570679E-1,1.012494507E0,1.039079224E1,1.046985667E1
4.238970708E0,-1.197809143E0,4.846920776E-1,9.330996094E0,9.420040406E0
4.248944708E0,-1.541943512E0,6.706054688E-2,8.344397736E0,8.485933094E0
4.258918708E0,-1.704804840E0,-1.522334290E-1,7.499704285E0,7.692535272E0
4.268892708E0,-1.666933594E0,-8.951385498E-2,6.628366241E0,6.835343398E0
4.278866709E0,-1.579814758E0,-3.532653809E-2,5.727090454E0,5.941096507E0
4.288840708E0,-1.429227905E0,4.385879517E-2,4.860093384E0,5.066075769E0
4.298814708E0,-1.252295837E0,3.094065857E-1,4.014352112E0,4.216515170E0
4.308788708E0,-1.060843964E0,5.773493958E-1,3.207380219E0,3.427245265E0
4.318762708E0,-8.605604553E-1,7.327262878E-1,2.421664124E0,2.672435076E0
4.328736708E0,-6.542893982E-1,7.952961731E-1,1.660946045E0,1.954311230E0
4.338710708E0,-3.848497009E-1,8.174501038E-1,9.828561401E-1,1.335043129E0
4.348684708E0,-1.567240906E-1,8.178991699E-1,4.020639038E-1,9.247577388E-1
4.358659708E0,-9.445358276E-2,7.581733704E-1,-1.917512512E-1,7.877289389E-1
4.368633708E0,-1.321751404E-1,8.349636841E-1,-5.689668274E-1,1.018998465E0
4.378607708E0,-2.809657288E-1,1.020577698E0,-4.746629333E-1,1.160097185E0
4.388581708E0,-5.336402893E-1,1.193318481E0,-2.454895020E-1,1.330054906E0
4.398555708E0,-8.373587036E-1,1.365161133E0,-8.681945801E-3,1.601533607E0
4.408529708E0,-1.227148132E0,1.508562927E0,2.315684509E-1,1.958386732E0
4.418503708E0,-1.697769470E0,1.610800323E0,7.444020081E-1,2.455856919E0
4.428477708E0,-2.178719330E0,1.654509430E0,1.312770081E0,3.034400214E0
4.438451709E0,-2.546654205E0,1.672023010E0,1.729503479E0,3.503182963E0
4.448425708E0,-2.781066742E0,1.560355225E0,2.055076447E0,3.793729017E0
4.458399708E0,-2.980601807E0,1.329834595E0,2.441273346E0,4.075814364E0
4.468373708E0,-3.082539825E0,1.135838013E0,2.799777832E0,4.316356759E0
4.478347708E0,-3.114423523E0,1.065484314E0,2.978805542E0,4.439388827E0
4.488321709E0,-3.191363525E0,9.237290955E-1,3.357817383E0,4.723665332E0
4.498295708E0,-2.967578888E0,9.851014709E-1,4.099974060E0,5.156232797E0
4.508270708E0,-2.403402100E0,1.325643311E0,5.129084015E0,5.817316793E0
4.518244708E0,-1.811532898E0,1.630409546E0,6.711742859E0,7.140544722E0
4.528218708E0,-1.292113037E0,1.961520996E0,9.117839355E0,9.415525223E0
4.538192709E0,-9.446855164E-1,2.650238800E0,1.147992737E1,1.181968396E1
4.548166708E0,-1.089733887E0,3.373834076E0,1.351689148E1,1.397414153E1
4.558140708E0,-1.797312469E0,3.983366547E0,1.553724014E1,1.614011686E1
4.568114708E0,-3.119363251E0,4.301006012E0,1.674163559E1,1.756449379E1
4.578088708E0,-4.604275360E0,4.465214539E0,1.656769730E1,1.776586857E1
4.588062708E0,-5.794450378E0,5.116659851E0,1.572944046E1,1.752629911E1
4.598036208E0,-6.828200684E0,6.058351593E0,1.503413635E1,1.758843951E1
4.608010208E0,-7.735763397E0,7.025340729E0,1.470676712E1,1.804124294E1
4.617984209E0,-8.225395203E0,7.978109436E0,1.474643463E1,1.867524272E1
4.627958208E0,-8.412356415E0,8.297694855E0,1.513143402E1,1.919843160E1
4.637932208E0,-8.488248596E0,7.618706818E0,1.599409012E1,1.964448972E1
4.647906208E0,-8.034691772E0,6.737938385E0,1.690135345E1,1.988999332E1
4.657880208E0,-7.188052368E0,6.017336884E0,1.740834915E1,1.977187549E1
4.667855209E0,-6.447542267E0,5.077142029E0,1.743529312E1,1.927012244E1
4.677829208E0,-5.691314850E0,4.104315033E0,1.738903931E1,1.875140407E1
4.687803208E0,-4.758754120E0,3.489543457E0,1.733290604E1,1.830989585E1
4.697777208E0,-3.926035767E0,3.084485779E0,1.697694626E1,1.769588974E1
4.707751208E0,-3.354374542E0,2.796484680E0,1.611234421E1,1.669370513E1
4.717725208E0,-3.093916168E0,2.745740204E0,1.462743210E1,1.520109129E1
4.727699208E0,-2.988235931E0,2.872077484E0,1.270991959E1,1.336863639E1
4.737673208E0,-2.881807251E0,2.960393829E0,1.066202820E1,1.143449124E1
4.747647208E0,-2.805166626E0,2.969075775E0,8.751551056E0,9.657847412E0
4.757621208E0,-2.589165802E0,3.131338348E0,7.141948242E0,8.216841491E0
4.767595208E0,-2.360441437E0,3.186723175E0,5.783074036E0,7.012191788E0
4.777569209E0,-2.169738007E0,3.128494263E0,4.783752136E0,6.113879609E0
4.787543208E0,-2.099683685E0,3.005150757E0,4.130061493E0,5.522409853E0
4.797517208E0,-2.230062561E0,2.885549469E0,3.738924866E0,5.222943032E0
4.807491208E0,-2.495909729E0,2.907254333E0,3.496429138E0,5.187167807E0
4.817465208E0,-2.775677948E0,2.804867249E0,3.250939636E0,5.112756289E0
4.827439209E0,-3.032843170E0,2.719844055E0,3.196902008E0,5.178404371E0
4.837414208E0,-3.199596405E0,2.846031647E0,3.310366058E0,5.412562861E0
4.847388208E0,-3.262166290E0,2.957400055E0,3.463347931E0,5.602028461E0
4.857362208E0,-3.332370300E0,3.176843719E0,3.604055328E0,5.846900260E0
4.867336208E0,-3.368894348E0,3.543880463E0,3.655099182E0,6.104775827E0
4.877310209E0,-3.229234772E0,3.892655182E0,3.554208984E0,6.181676397E0
4.887284208E0,-3.105442200E0,4.129762115E0,3.507655792E0,6.245186590E0
4.897258208E0,-2.879711609E0,4.549189911E0,3.529959412E0,6.438049491E0
4.907232208E0,-2.454595642E0,5.059029694E0,3.796105957E0,6.784485363E0
4.917206208E0,-2.217788086E0,5.572761383E0,4.319866791E0,7.391583221E0
4.927180208E0,-2.237097931E0,5.995482330E0,4.816983032E0,8.009603052E0
4.937154208E0,-2.589315491E0,6.345604248E0,5.117258606E0,8.553220658E0
4.947128208E0,-3.278931427E0,6.488407288E0,5.490282898E0,9.110105748E0
4.957102208E0,-4.427492981E0,6.241720276E0,6.438710632E0,1.000093799E1
4.967076208E0,-5.250631256E0,6.630910950E0,7.765551453E0,1.148224272E1
4.977050208E0,-6.427933044E0,6.651118927E0,9.129664764E0,1.299640277E1
4.987024208E0,-8.562194824E0,4.928201752E0,9.713899841E0,1.385489815E1
4.996999208E0,-1.017958145E1,2.806663513E0,1.003722748E1,1.456870530E1
5.006973208E0,-1.050141220E1,1.136436768E0,1.137275024E1,1.552129488E1
5.016947208E0,-9.831704865E0,5.593867493E-1,1.245904129E1,1.588090186E1
5.026921208E0,-8.690777435E0,5.210664368E-1,1.268567001E1,1.538594639E1
5.036895209E0,-6.542744293E0,6.333329773E-1,1.228270798E1,1.393102756E1
5.046869208E0,-4.490062866E0,6.147715759E-1,1.223495728E1,1.304732878E1
5.056843208E0,-2.950963440E0,2.516267395E-1,1.185923859E1,1.222346273E1
5.066817208E0,-1.540746002E0,1.742376709E-1,1.141975250E1,1.152453922E1
5.076791208E0,-6.894662476E-1,2.074685669E-1,1.136631363E1,1.138909533E1
5.086765209E0,-2.441423035E-1,3.100053406E-1,1.095212494E1,1.095923124E1
5.096739208E0,-4.445755005E-2,3.146456909E-1,1.030921188E1,1.031410820E1
5.106713208E0,-6.885681152E-3,4.026626587E-1,9.630523224E0,9.638939890E0
5.116687208E0,-1.787283325E-1,5.810916138E-1,8.974886627E0,8.995454477E0
5.126661208E0,-3.272195435E-1,6.990463257E-1,8.030051422E0,8.067060446E0
5.136635209E0,-8.876541138E-2,8.698411560E-1,6.940467224E0,6.995326170E0
5.146609208E0,1.447489929E-1,1.082848206E0,6.146817627E0,6.243146598E0
5.156583208E0,2.719844055E-1,1.383872223E0,5.455255737E0,5.634615604E0
5.166558208E0,4.203259277E-1,1.759141846E0,4.888534241E0,5.212391096E0
5.176532208E0,6.053411865E-1,2.141297150E0,4.531676331E0,5.048532638E0
5.186506208E0,6.506968689E-1,2.646197205E0,4.643044739E0,5.383644723E0
5.196480208E0,6.051914978E-1,3.539389801E0,5.115162964E0,6.249674316E0
5.206454208E0,3.459306335E-1,4.240980835E0,5.730982361E0,7.137909026E0
5.216428208E0,-1.977388000E-1,4.578229523E0,6.256240082E0,7.754987180E0
5.226402208E0,-1.352138214E0,4.417763214E0,6.793921967E0,8.215977438E0
5.236376208E0,-3.397933960E0,3.524720306E0,8.224646759E0,9.571542339E0
5.246350208E0,-5.500312042E0,2.306254120E0,1.022957748E1,1.184130466E1
5.256324208E0,-6.535259857E0,1.380130005E0,1.233135681E1,1.402414850E1
5.266298208E0,-6.406078491E0,9.547146606E-1,1.413166306E1,1.554519934E1
5.276272208E0,-6.119274902E0,6.233038330E-1,1.481903366E1,1.604486808E1
5.286246208E0,-5.615572357E0,-1.826202393E-1,1.470018082E1,1.573732249E1
5.296220209E0,-4.434678040E0,-5.192701721E-1,1.403631134E1,1.472936003E1
5.306194208E0,-2.306553497E0,5.016069031E-1,1.256442215E1,1.278422866E1
5.316168208E0,-6.433621216E-1,1.282383270E0,1.109073669E1,1.118315081E1
5.326142208E0,1.523831177E-1,1.256786499E0,9.608668671E0,9.691710197E0
5.336116208E0,3.814068604E-1,1.223256226E0,8.442144470E0,8.538830730E0
5.346091209E0,6.782395935E-1,1.795067139E0,7.512577515E0,7.753779459E0
5.356065208E0,9.716294861E-1,2.483335876E0,7.042255554E0,7.530231353E0
5.366039208E0,1.046324158E0,2.937042389E0,6.992858276E0,7.656440368E0
5.376013208E0,8.622070313E-1,3.122506714E0,7.129075012E0,7.830527420E0
5.385987208E0,5.313949585E-2,2.713557129E0,7.124434662E0,7.623895681E0
5.395961209E0,-7.656578064E-1,2.443967743E0,7.264692993E0,7.702919868E0
5.405935208E0,-1.554667053E0,2.440824280E0,7.786208496E0,8.306603130E0
5.415909208E0,-2.314187622E0,2.475102997E0,8.389753418E0,9.048180016E0
5.425883208E0,-3.054847412E0,2.481689301E0,8.897048492E0,9.728738170E0
5.435857208E0,-3.563190308E0,2.570454712E0,9.329798584E0,1.031255081E1
5.445831208E0,-4.048481140E0,2.823728027E0,9.631271667E0,1.082243196E1
5.455805208E0,-4.610861664E0,3.229833527E0,9.615853729E0,1.114255414E1
5.465779208E0,-5.059329071E0,3.756887512E0,9.504185944E0,1.140353300E1
5.475753208E0,-5.426964569E0,4.401596832E0,9.506131897E0,1.179798893E1
5.485727208E0,-5.764961700E0,5.021607513E0,9.758357391E0,1.239664730E1
5.495701208E0,-5.851631470E0,5.439538422E0,1.050156189E1,1.319518743E1
5.505675209E0,-5.477709045E0,5.580694885E0,1.175011551E1,1.411434257E1
5.515649208E0,-5.235512695E0,5.462590485E0,1.335971832E1,1.535358465E1
5.525624208E0,-5.213807831E0,5.301675110E0,1.453746918E1,1.632879546E1
5.535598208E0,-5.320386200E0,5.326822815E0,1.510284348E1,1.687534982E1
5.545572208E0,-5.621559906E0,5.248685303E0,1.495659760E1,1.681815819E1
5.555546209E0,-5.523962860E0,5.451962585E0,1.439017548E1,1.634977712E1
5.565520208E0,-5.077740784E0,5.903573456E0,1.358874207E1,1.566172219E1
5.575494208E0,-4.567451935E0,6.226751404E0,1.285107605E1,1.499280514E1
5.585468208E0,-4.291425934E0,6.040987701E0,1.241293716E1,1.445651680E1
5.595442333E0,-3.981420593E0,5.702691193E0,1.198557587E1,1.385735998E1
5.605416333E0,-3.686084747E0,5.135820007E0,1.207434128E1,1.362914470E1
5.615390333E0,-3.521726532E0,4.270319824E0,1.250469635E1,1.367499982E1
5.625364333E0,-3.486699371E0,3.502716064E0,1.266112106E1,1.359154439E1
5.635338333E0,-3.510799255E0,2.863395538E0,1.222193436E1,1.303458572E1
5.645312333E0,-3.469485168E0,2.356250153E0,1.138412659E1,1.213208887E1
5.655286334E0,-3.466641083E0,1.953288116E0,1.052685928E1,1.125378608E1
5.665260333E0,-3.824247437E0,1.400188293E0,9.715696106E0,1.053471151E1
5.675234333E0,-4.493954773E0,8.506809998E-1,8.675060120E0,9.806934064E0
5.685208333E0,-5.087769928E0,6.914122009E-1,7.666906586E0,9.227399973E0
5.695182333E0,-5.310357056E0,5.517526245E-1,6.977440338E0,8.785726873E0
5.705156334E0,-4.997507629E0,5.010081482E-1,6.563251648E0,8.264524419E0
5.715131333E0,-4.334985352E0,5.408253479E-1,6.182144165E0,7.569907300E0
5.725105333E0,-3.514391785E0,5.141807556E-1,5.779182129E0,6.783382456E0
5.735079333E0,-2.628983002E0,4.995112610E-1,5.082231445E0,5.743704344E0
5.745053333E0,-1.758992157E0,4.460723877E-1,4.253854065E0,4.624749549E0
5.755027334E0,-1.178798676E0,3.065625000E-1,3.742068329E0,3.935304596E0
5.765001333E0,-7.306306458E-1,2.011816406E-1,3.332819366E0,3.417891181E0
5.774975333E0,-3.879931641E-1,2.844085693E-1,2.835553436E0,2.876072012E0
5.784949333E0,-2.851570129E-1,4.080514526E-1,2.288890228E0,2.342400262E0
5.794923333E0,-3.088078308E-1,5.378315735E-1,1.934277649E0,2.031269332E0
5.804897333E0,-6.144721985E-1,5.727090454E-1,1.811981964E0,1.997210648E0
5.814871333E0,-1.139580231E0,4.225712585E-1,2.067650299E0,2.398413503E0
5.824845333E0,-1.715133362E0,3.365002441E-1,2.537373505E0,3.081100317E0
5.834819333E0,-2.106719055E0,4.079017639E-1,2.877166901E0,3.589253181E0
5.844793333E0,-2.537822571E0,2.603086853E-1,3.169958038E0,4.069021747E0
5.854767333E0,-2.857258301E0,2.299218750E-1,3.420087891E0,4.462487002E0
5.864741334E0,-2.989732819E0,3.608995056E-1,3.662882996E0,4.741883868E0
5.874715333E0,-3.183280334E0,2.417472839E-1,3.898493042E0,5.038845447E0
5.884689333E0,-3.158581696E0,2.124082947E-1,4.344415741E0,5.375472420E0
5.894663333E0,-2.804118805E0,3.269201660E-1,4.731211395E0,5.509475504E0
5.904638333E0,-2.318378906E0,3.058140564E-1,4.946014709E0,5.470965591E0
5.914612334E0,-1.691482544E0,3.640429688E-1,5.178331604E0,5.459739800E0
5.924586333E0,-9.512718201E-1,8.878038025E-1,5.375471649E0,5.530715064E0
5.934560333E0,-7.140151978E-2,1.503323822E0,5.535039825E0,5.736004407E0
5.944534333E0,7.978408813E-1,2.094594269E0,6.092031555E0,6.491280590E0
5.954508333E0,1.743873596E0,2.938239899E0,7.491321716E0,8.233726367E0
5.964482334E0,2.611020355E0,4.069886627E0,8.560847626E0,9.832065730E0
5.974456333E0,2.754272461E0,4.702920227E0,8.503816223E0,1.010041414E1
5.984430333E0,2.161505127E0,4.697980499E0,8.222102051E0,9.713191408E0
5.994404333E0,1.052162018E0,4.930896149E0,8.191415863E0,9.618735654E0
6.004378333E0,-5.430706787E-1,5.265899506E0,8.688232727E0,1.017398699E1
6.014352333E0,-2.634820862E0,5.504353638E0,1.025726990E1,1.193531632E1
6.024326333E0,-4.994214478E0,5.714666290E0,1.281844391E1,1.489671418E1
6.034300333E0,-7.035070496E0,5.733976135E0,1.555116119E1,1.800581333E1
6.044274333E0,-8.340505829E0,5.488486633E0,1.769036270E1,2.031345504E1
6.054248333E0,-8.725954285E0,5.101690979E0,1.872501114E1,2.127899366E1
6.064222333E0,-8.786578217E0,4.500990143E0,1.873249557E1,2.117473163E1
6.074196333E0,-8.610843658E0,3.675905914E0,1.822011108E1,2.048490568E1
6.084171333E0,-7.957901459E0,3.181334381E0,1.762554749E1,1.959869915E1
6.094145333E0,-7.150330811E0,2.773881683E0,1.691976517E1,1.857687012E1
6.104119333E0,-6.418352966E0,2.317780151E0,1.605411530E1,1.744425342E1
6.114093333E0,-5.504952393E0,2.179018707E0,1.512814087E1,1.624540764E1
6.124067334E0,-4.285288696E0,2.186652832E0,1.406100998E1,1.486126345E1
6.134041333E0,-3.089874573E0,2.149829407E0,1.282233582E1,1.336343471E1
6.144015333E0,-1.933229828E0,2.130968628E0,1.129326553E1,1.165402297E1
6.153989333E0,-9.056167603E-1,2.151775360E0,9.593101044E0,9.873087995E0
6.163963333E0,-2.163002014E-1,2.064806213E0,8.073161774E0,8.335835381E0
6.173937334E0,3.456312561E-1,2.037562866E0,6.896009674E0,7.199032770E0
6.183911333E0,7.533833313E-1,2.068698120E0,6.094127197E0,6.479620718E0
6.193885333E0,9.410929871E-1,2.087259521E0,5.635480957E0,6.082840943E0
6.203859333E0,9.303153992E-1,2.071392517E0,5.301226044E0,5.767074758E0
6.213833333E0,9.208850098E-1,2.144440613E0,4.785698090E0,5.324430575E0
6.223807334E0,1.052311707E0,2.227966919E0,4.216282196E0,4.883465171E0
6.233781333E0,1.217867432E0,2.344275055E0,3.614084473E0,4.476654241E0
6.243755333E0,1.324296112E0,2.508932648E0,3.061134338E0,4.173613142E0
6.253729333E0,1.259780273E0,2.651885376E0,2.594255219E0,3.917869641E0
6.263703333E0,1.045126648E0,2.810106354E0,2.059567108E0,3.637417230E0
6.273678333E0,7.554789734E-1,3.203039246E0,1.825154572E0,3.763163310E0
6.283652333E0,-4.116439819E-2,3.676654358E0,2.136956177E0,4.252771270E0
6.293626333E0,-1.366208954E0,4.158801727E0,2.850073242E0,5.223511864E0
6.303600333E0,-2.314037933E0,4.839586029E0,3.563339996E0,6.440012144E0
6.313574333E0,-3.170107727E0,5.373076630E0,4.724774780E0,7.825792752E0
6.323548333E0,-4.387226715E0,5.520969086E0,6.583759003E0,9.647525097E0
6.333522333E0,-6.085295563E0,5.416785736E0,8.888665924E0,1.205739490E1
6.343496333E0,-7.954159241E0,5.121000824E0,1.110959747E1,1.459165702E1
6.353470333E0,-9.611363068E0,4.462220764E0,1.311647415E1,1.686213534E1
6.363444333E0,-1.058568695E1,3.748355255E0,1.462818054E1,1.844154552E1
6.373418333E0,-1.059032730E1,3.155887299E0,1.597148712E1,1.942171614E1
6.383392334E0,-9.557774506E0,2.805166626E0,1.709624817E1,1.978640227E1
6.393366333E0,-8.254285126E0,2.373164978E0,1.777643372E1,1.974251075E1
6.403340333E0,-7.002438354E0,1.970053253E0,1.789423874E1,1.931628931E1
6.413314333E0,-5.757477264E0,1.725312195E0,1.746567993E1,1.847092911E1
6.423288333E0,-4.674329681E0,1.592238922E0,1.671244629E1,1.742671638E1
6.433262334E0,-3.777843933E0,1.509161682E0,1.566492462E1,1.618454625E1
6.443236333E0,-3.110830994E0,1.500330048E0,1.436891968E1,1.477816336E1
6.453210333E0,-2.778821411E0,1.499132538E0,1.297876053E1,1.335730031E1
6.463184333E0,-2.683769073E0,1.592687988E0,1.143157791E1,1.184990485E1
6.473158333E0,-2.589764557E0,1.820813599E0,9.839189301E0,1.033595127E1
6.483133334E0,-2.566413116E0,2.005828857E0,8.435408478E0,9.042452205E0
6.493107333E0,-2.565814362E0,2.179467773E0,7.237150269E0,7.981843592E0
6.503081333E0,-2.500550079E0,2.316133575E0,6.035898285E0,6.931759773E0
6.513055333E0,-2.326911163E0,2.413281555E0,5.042264557E0,6.054987637E0
6.523029333E0,-2.078128510E0,2.632725220E0,4.378095703E0,5.515213701E0
6.533003333E0,-1.737886047E0,2.870730286E0,3.897594910E0,5.143207790E0
6.542977333E0,-1.422491913E0,2.922522583E0,3.669469299E0,4.902002288E0
6.552951333E0,-1.159039764E0,3.049159241E0,3.684138794E0,4.920734082E0
6.562925333E0,-9.199868774E-1,3.320544891E0,3.867806854E0,5.179992673E0
6.572899333E0,-7.369175720E-1,3.662583618E0,4.230352936E0,5.643886270E0
6.582873333E0,-5.237608337E-1,3.785028992E0,4.708458710E0,6.063856306E0
6.592847833E0,-2.749781799E-1,3.711382141E0,5.348976746E0,6.516250657E0
6.602821833E0,-2.125579834E-2,3.908821564E0,5.981112213E0,7.145141086E0
6.612795833E0,4.849914551E-2,4.244273987E0,6.354735260E0,7.641915602E0
6.622769833E0,-3.195854187E-1,4.240681458E0,6.461912384E0,7.735749849E0
6.632743833E0,-1.081051941E0,4.025578766E0,6.747219086E0,7.930884130E0
6.642717833E0,-2.141746216E0,3.862118683E0,7.440876617E0,8.652726877E0
6.652691833E0,-3.578308868E0,3.321143646E0,8.524772644E0,9.823748679E0
6.662665833E0,-5.047353973E0,2.748584290E0,9.485923920E0,1.109113386E1
6.672639833E0,-5.676046600E0,2.449955292E0,1.014021332E1,1.187618255E1
6.682614833E0,-5.486540680E0,2.320474548E0,1.057146652E1,1.213435763E1
6.692588833E0,-4.707410889E0,2.226020966E0,1.050141220E1,1.172154191E1
6.702562833E0,-3.470682678E0,2.236499176E0,9.959838409E0,1.078174142E1
6.712536833E0,-2.210752716E0,2.330204315E0,9.216184845E0,9.759884365E0
6.722510834E0,-1.080303497E0,2.614912262E0,8.595725098E0,9.049381843E0
6.732484833E0,-3.375480652E-1,2.907104645E0,8.174800415E0,8.682888801E0
6.742458833E0,-6.481521606E-2,3.071163483E0,7.831264801E0,8.412190828E0
6.752432833E0,2.529739380E-2,3.157833252E0,7.557783508E0,8.191009850E0
6.762406833E0,-1.826202393E-2,3.263363800E0,7.441924438E0,8.126014776E0
6.772380834E0,-2.965333557E-1,3.356919250E0,7.436535645E0,8.164490264E0
6.782354833E0,-6.313870239E-1,3.377725983E0,7.316185913E0,8.082961011E0
6.792328833E0,-9.650431824E-1,3.375181274E0,6.953190765E0,7.789096148E0
6.802302833E0,-1.407672729E0,3.286864929E0,6.606960754E0,7.512453260E0
6.812276833E0,-2.075434113E0,3.105292511E0,6.430477753E0,7.436485222E0
6.822250834E0,-2.744991760E0,2.997965698E0,6.356980591E0,7.545460909E0
6.832224833E0,-3.454366608E0,2.875670013E0,6.516698456E0,7.916406094E0
6.842198833E0,-3.984713745E0,2.755769348E0,6.666985931E0,8.241414305E0
6.852172833E0,-3.997287598E0,2.558030548E0,6.844217377E0,8.328573703E0
6.862146833E0,-3.689078522E0,2.383194122E0,7.116052094E0,8.362243237E0
6.872120833E0,-3.055146790E0,2.293380890E0,7.437284088E0,8.361023407E0
6.882094833E0,-2.217937775E0,2.242935791E0,7.915389862E0,8.520763205E0
6.892069833E0,-1.562899933E0,2.294129333E0,8.403075714E0,8.849709998E0
6.902043833E0,-1.148411865E0,2.443219299E0,8.929381256E0,9.328559373E0
6.912017833E0,-9.478289795E-1,2.693349152E0,9.713600464E0,1.012455152E1
6.921991833E0,-1.119521942E0,3.081342316E0,1.097712296E1,1.145623098E1
6.931965834E0,-1.697170715E0,3.558699646E0,1.221819214E1,1.283857277E1
6.941939833E0,-2.309996338E0,4.002077637E0,1.317021240E1,1.395733510E1
6.951913833E0,-3.164120178E0,4.269122314E0,1.408421173E1,1.505330801E1
6.961887833E0,-3.988006897E0,4.651277618E0,1.502710098E1,1.622813441E1
6.971861833E0,-4.448449402E0,5.173691254E0,1.588541611E1,1.728878909E1
6.981835834E0,-5.009782104E0,5.471122742E0,1.611728394E1,1.774254610E1
6.991809833E0,-5.707181854E0,5.702840881E0,1.595756607E1,1.788122573E1
7.001783833E0,-6.405479736E0,5.975424042E0,1.578886688E1,1.805613969E1
7.011757833E0,-6.937772827E0,6.222859497E0,1.570968155E1,1.826610978E1
7.021731833E0,-7.120692444E0,6.403533783E0,1.571432190E1,1.840242969E1
7.031705834E0,-6.839876404E0,6.381230164E0,1.579994385E1,1.836143331E1
7.041679833E0,-6.274053040E0,6.172564087E0,1.590472595E1,1.817758500E1
7.051653833E0,-5.650599518E0,5.740263062E0,1.607537109E1,1.798047415E1
7.061627833E0,-5.141957245E0,4.934638367E0,1.625918884E1,1.775250974E1
7.071601833E0,-4.673581238E0,3.935765533E0,1.608959152E1,1.721068178E1
7.081575833E0,-4.237238617E0,2.969674530E0,1.544787598E1,1.629140970E1
7.091549833E0,-3.910617828E0,2.132764893E0,1.436727310E1,1.504194649E1
7.101523833E0,-3.707490234E0,1.488354950E0,1.307935135E1,1.367589544E1
7.111497833E0,-3.572171631E0,1.020278320E0,1.169248535E1,1.226847960E1
7.121472833E0,-3.570974121E0,5.998027039E-1,1.031265472E1,1.092988870E1
7.131446833E0,-3.750600586E0,2.429447937E-1,8.930279388E0,9.688958504E0
7.141420833E0,-4.083508301E0,-2.260299683E-2,7.682025146E0,8.699946051E0
7.151394833E0,-4.388573914E0,-1.827699280E-1,6.836882629E0,8.126250669E0
7.161368833E0,-4.691843262E0,-2.335144043E-1,6.267466736E0,7.832564169E0
7.171342833E0,-4.867128754E0,-6.122268677E-2,5.648952942E0,7.456766046E0
7.181316833E0,-5.007536774E0,1.462458801E-1,5.084177399E0,7.137623710E0
7.191290834E0,-4.938829651E0,3.894900513E-1,4.410727844E0,6.633118493E0
7.201264833E0,-4.505480804E0,6.400689697E-1,3.637884979E0,5.826083821E0
7.211238833E0,-3.855981445E0,7.789801025E-1,2.884052582E0,4.877823511E0
7.221212833E0,-3.035537567E0,8.578660583E-1,2.118394775E0,3.799739323E0
7.231186833E0,-2.237247620E0,8.743318176E-1,1.352287903E0,2.756522376E0
7.241160834E0,-1.584155731E0,8.680448914E-1,7.768844604E-1,1.966367407E0
7.251134833E0,-1.058598633E0,9.213340759E-1,4.962181091E-1,1.488529461E0
7.261108833E0,-7.107220459E-1,9.806108093E-1,3.739224243E-1,1.267494128E0
7.271082833E0,-5.005590820E-1,1.039737854E0,3.233276367E-1,1.198396829E0
7.281056833E0,-6.620732117E-1,9.530680847E-1,5.246589661E-1,1.273556729E0
7.291030833E0,-9.854008484E-1,9.897418213E-1,8.539741516E-1,1.637032546E0
7.301004833E0,-1.200204163E0,1.195114746E0,1.174607391E0,2.061186991E0
7.310978833E0,-1.571731567E0,1.259031830E0,1.496887207E0,2.509217523E0
7.320952833E0,-1.913770294E0,1.342258759E0,1.525178375E0,2.791118842E0
7.330926833E0,-2.238744507E0,1.445543976E0,1.410816193E0,3.015290481E0
7.340901833E0,-2.429148560E0,1.435963898E0,1.299597473E0,3.106719915E0
7.350875833E0,-2.351160736E0,1.456171875E0,1.233734436E0,3.028282351E0
7.360849833E0,-2.434986420E0,1.418450317E0,1.464554443E0,3.175858921E0
7.370823833E0,-2.613864441E0,1.410217438E0,1.720073090E0,3.432149759E0
7.380797833E0,-2.528242493E0,1.769470367E0,1.889520721E0,3.618469848E0
7.390771833E0,-2.945724335E0,2.114802246E0,2.499801636E0,4.404394239E0
7.400745834E0,-3.881278839E0,2.479294281E0,3.426075439E0,5.740140980E0
7.410719833E0,-4.008963318E0,3.179238739E0,5.094954987E0,7.220658707E0
7.420693833E0,-3.217708740E0,4.276906128E0,6.778504028E0,8.636764002E0
7.430667833E0,-1.892664185E0,5.756130066E0,8.133785706E0,1.014266636E1
7.440641833E0,-5.358856201E-1,6.869664459E0,9.322912903E0,1.159293613E1
7.450615834E0,-1.041833496E0,6.770720215E0,9.855205994E0,1.200221456E1
7.460589833E0,-2.822231140E0,6.250551910E0,1.022673340E1,1.231342616E1
7.470563833E0,-4.463867340E0,6.493945770E0,1.080767532E1,1.337547342E1
7.480537833E0,-5.738616486E0,6.945706329E0,1.183903061E1,1.487740573E1
7.490511833E0,-6.632707214E0,7.234306183E0,1.303264847E1,1.631495992E1
7.500485834E0,-7.546257477E0,7.279362488E0,1.390189087E1,1.741257275E1
7.510459833E0,-8.301137695E0,7.125033417E0,1.483160751E1,1.842963835E1
7.520433833E0,-8.487350464E0,6.690936127E0,1.567225937E1,1.903742256E1
7.530407833E0,-8.041577454E0,5.858816528E0,1.562450867E1,1.852344380E1
7.540381833E0,-7.238946533E0,4.719685364E0,1.499057693E1,1.730303943E1
7.550355833E0,-6.301446075E0,3.630699921E0,1.425171341E1,1.600004811E1
7.560329833E0,-5.546416168E0,2.899769897E0,1.362691269E1,1.499547089E1
7.570303833E0,-4.777914276E0,2.430046692E0,1.293280609E1,1.399968089E1
7.580277833E0,-3.679049377E0,2.237397308E0,1.226758942E1,1.300134997E1
7.590252833E0,-2.680775299E0,2.295925598E0,1.153306686E1,1.206107217E1
7.600226833E0,-1.913919983E0,2.429447937E0,1.083611618E1,1.126883849E1
7.610200834E0,-1.417552185E0,2.560874634E0,1.029588959E1,1.070387199E1
7.620174833E0,-1.159339142E0,2.593207397E0,9.941277008E0,1.033913828E1
7.630148833E0,-9.587562561E-1,2.654579773E0,9.662556610E0,1.006633039E1
7.640122833E0,-1.073417816E0,2.646346893E0,9.460776215E0,9.882391627E0
7.650096833E0,-1.191971283E0,2.681074677E0,9.034313049E0,9.498829888E0
7.660070834E0,-1.235680389E0,2.817441101E0,8.588689728E0,9.123073584E0
7.670044833E0,-1.341061249E0,2.941083984E0,8.233777771E0,8.845536539E0
7.680018833E0,-1.467099152E0,3.092119904E0,7.682174835E0,8.410077028E0
7.689992833E0,-1.658700714E0,3.238216095E0,6.851552124E0,7.757647713E0
7.699966833E0,-1.809886322E0,3.403771820E0,6.276148682E0,7.365554519E0
7.709940834E0,-1.911075897E0,3.503464508E0,5.861061859E0,7.090734853E0
7.719914833E0,-1.917512512E0,3.491489410E0,5.350773010E0,6.670691444E0
7.729888833E0,-1.793719940E0,3.568279724E0,4.866230621E0,6.295256299E0
7.739862833E0,-1.610500946E0,3.806284790E0,4.560117188E0,6.154363165E0
7.749836833E0,-1.624421997E0,3.970643005E0,4.706363068E0,6.368249840E0
7.759810833E0,-1.639989624E0,4.231400757E0,5.006339264E0,6.757051958E0
7.769784833E0,-1.556762695E0,4.572241974E0,5.284760284E0,7.159441181E0
7.779758833E0,-1.672621765E0,4.868475952E0,5.828130341E0,7.776041727E0
7.789732833E0,-1.673220520E0,5.337001648E0,6.476432190E0,8.557302578E0
7.799706833E0,-1.633553009E0,6.052962799E0,7.007527771E0,9.402781479E0
7.809680833E0,-2.249971161E0,6.675368500E0,7.403304749E0,1.021918960E1
7.819654834E0,-3.872297516E0,6.994355164E0,7.941585388E0,1.126873865E1
7.829628833E0,-6.096073151E0,6.952142944E0,8.922196198E0,1.284912388E1
7.839602833E0,-8.274493103E0,6.581363983E0,9.251062317E0,1.404862064E1
7.849577833E0,-9.304800568E0,5.767356720E0,8.711284790E0,1.399028948E1
7.859551833E0,-9.787546692E0,4.195176086E0,8.432265015E0,1.358302860E1
7.869525834E0,-9.848619690E0,2.534230042E0,8.635691986E0,1.334139452E1
7.879499833E0,-9.896370392E0,9.159452820E-1,9.509275360E0,1.375512343E1
7.889473833E0,-9.891580353E0,-3.094065857E-1,1.078761703E1,1.463939123E1
7.899447833E0,-9.779164124E0,-9.370513916E-1,1.244601837E1,1.585602376E1
7.909421833E0,-9.610315247E0,-1.326092377E0,1.389186172E1,1.694404032E1
7.919395834E0,-8.752898254E0,-1.188079376E0,1.458821365E1,1.705405342E1
7.929369833E0,-6.709796906E0,-8.563691711E-1,1.429886536E1,1.581810018E1
7.939343833E0,-4.485871582E0,-7.412585449E-1,1.316871552E1,1.393153173E1
7.949317833E0,-2.592458954E0,-6.499484253E-1,1.163769928E1,1.194065831E1
7.959291833E0,-1.228195953E0,-3.279679871E-1,1.011940659E1,1.019894200E1
7.969265833E0,-6.809339905E-1,1.829196167E-1,9.031768341E0,9.059247764E0
7.979239833E0,-7.795788574E-1,6.201603699E-1,8.281229095E0,8.340929050E0
7.989213833E0,-1.154998169E0,9.168434143E-1,7.781867523E0,7.920358879E0
7.999187833E0,-1.517843628E0,1.324894867E0,7.396119690E0,7.665623403E0
8.009161833E0,-1.954485626E0,1.707798615E0,7.130571899E0,7.588257098E0
8.019135833E0,-2.372266846E0,1.904639282E0,6.810238037E0,7.458863379E0
8.029109834E0,-2.812052307E0,2.166744232E0,6.515051880E0,7.419455488E0
8.039083833E0,-3.406615906E0,2.371967468E0,6.647227020E0,7.836892794E0
8.049057833E0,-3.717220001E0,2.524200897E0,7.106621704E0,8.407935939E0
8.059031833E0,-3.972139893E0,2.691103821E0,7.748636627E0,9.113797490E0
8.069005833E0,-3.948489075E0,2.918331299E0,8.114475861E0,9.484299765E0
8.078979834E0,-3.665577393E0,3.095263367E0,8.048313446E0,9.369763191E0
8.088953833E0,-3.407813416E0,3.102897491E0,7.714058533E0,8.985981536E0
8.098927833E0,-3.263663177E0,2.945424957E0,7.393425293E0,8.601730237E0
8.108901833E0,-3.332519989E0,2.747237091E0,7.256909180E0,8.444864235E0
8.118876833E0,-3.289409637E0,2.638114014E0,7.586972809E0,8.679977979E0
8.128850834E0,-3.127446442E0,2.467019806E0,8.261769562E0,9.171910611E0
8.138824833E0,-3.001558228E0,2.115999756E0,9.260492706E0,9.962104794E0
8.148798833E0,-2.811902618E0,1.800605621E0,1.017763550E1,1.071136038E1
8.158772833E0,-2.490371246E0,1.607507172E0,1.060499680E1,1.101144792E1
8.168746833E0,-2.009271698E0,1.494641876E0,1.061517563E1,1.090656136E1
8.178720834E0,-1.485810242E0,1.507964172E0,1.032088760E1,1.053576333E1
8.188694833E0,-1.115929413E0,1.519340515E0,9.635462952E0,9.818138334E0
8.198668833E0,-9.319619751E-1,1.559756470E0,8.826395416E0,9.011473210E0
8.208642833E0,-9.982740784E-1,1.610201569E0,8.119116211E0,8.337226654E0
8.218616833E0,-1.284478912E0,1.658401337E0,7.574698334E0,7.859785997E0
8.228590833E0,-1.845661926E0,1.685195618E0,7.213200073E0,7.633911678E0
8.238564833E0,-2.677631836E0,1.560654602E0,7.033274231E0,7.685850730E0
8.248538833E0,-3.303330688E0,1.616488495E0,6.919211426E0,7.835848100E0
8.258512833E0,-3.437152405E0,1.805096283E0,6.786287842E0,7.818317717E0
8.268486833E0,-3.315605164E0,1.951192474E0,6.522386627E0,7.572444585E0
8.278460833E0,-3.247347107E0,1.892963562E0,6.380332031E0,7.405215129E0
8.288434834E0,-3.062481537E0,2.008223877E0,6.347849579E0,7.328502615E0
8.298408833E0,-2.782114563E0,2.396815796E0,6.441255341E0,7.414489717E0
8.308382833E0,-2.838547211E0,2.801873474E0,6.912176056E0,7.980352314E0
8.318356833E0,-3.002606049E0,3.308719482E0,7.398365021E0,8.642862528E0
8.328330833E0,-3.276536407E0,3.705394592E0,7.935897217E0,9.351155252E0
8.338304834E0,-3.798201599E0,4.259392548E0,8.812773743E0,1.049922575E1
8.348278833E0,-4.359085236E0,4.846022644E0,9.813742218E0,1.178113305E1
8.358252833E0,-4.927303619E0,5.090015259E0,1.061293030E1,1.276012797E1
8.368226833E0,-5.306315460E0,5.182522888E0,1.153950348E1,1.371771365E1
8.378200833E0,-5.620362396E0,5.040767670E0,1.273985733E1,1.480884118E1
8.388174833E0,-5.848188629E0,5.080285492E0,1.397254395E1,1.597631357E1
8.398148833E0,-5.833369446E0,5.400170288E0,1.505838593E1,1.702777217E1
8.408122833E0,-5.724246368E0,5.662275238E0,1.568154007E1,1.762779216E1
8.418097833E0,-5.532944183E0,5.982758789E0,1.576267136E1,1.774453951E1
8.428071833E0,-5.261408844E0,6.412365417E0,1.553185135E1,1.760793172E1
8.438045833E0,-4.896467743E0,6.808591461E0,1.488429794E1,1.708433901E1
8.448019833E0,-4.513114929E0,7.204518127E0,1.403241943E1,1.640676943E1
8.457993833E0,-4.074676666E0,7.745942230E0,1.318592972E1,1.582628679E1
8.467967833E0,-3.735482025E0,8.246052246E0,1.237686218E1,1.533420755E1
8.477941833E0,-3.777993622E0,8.574768677E0,1.159413986E1,1.490717857E1
8.487915833E0,-4.394411774E0,8.659043427E0,1.113938553E1,1.477754370E1
8.497889834E0,-5.309907990E0,8.168812866E0,1.139550293E1,1.499273536E1
8.507863833E0,-5.828429718E0,6.898853760E0,1.226175156E1,1.522876644E1
8.517837833E0,-5.747897186E0,5.361400909E0,1.278491364E1,1.500789654E1
8.527811833E0,-5.503156128E0,3.692820740E0,1.283700531E1,1.444681133E1
8.537785833E0,-5.467829590E0,2.129022675E0,1.231010101E1,1.363702625E1
8.547759834E0,-5.560636597E0,7.015910339E-1,1.128293701E1,1.259831643E1
8.557733833E0,-5.433850250E0,-3.811074829E-1,1.012599289E1,1.149816087E1
8.567707833E0,-5.035229187E0,-7.479945374E-1,9.097332001E0,1.042470519E1
8.577681833E0,-4.489913177E0,-6.286926270E-1,8.249794464E0,9.413484130E0
8.587655833E0,-3.853586426E0,-4.038601685E-1,7.550448761E0,8.486607559E0
8.597629083E0,-3.111729126E0,-4.385879517E-2,6.901697845E0,7.570879401E0
8.607603083E0,-2.526895294E0,2.809657288E-1,6.112239532E0,6.619940609E0
8.617577083E0,-2.002236328E0,4.745132446E-1,5.103337555E0,5.502560071E0
8.627551083E0,-1.390009460E0,6.770420837E-1,3.855233002E0,4.153713252E0
8.637525083E0,-8.261320496E-1,8.913963318E-1,2.418670349E0,2.706852017E0
8.647499083E0,-4.180805969E-1,9.668394470E-1,9.720785522E-1,1.433355020E0
8.657473083E0,-1.345701599E-1,1.087937622E0,-2.417472839E-1,1.122568103E0
8.667447083E0,-9.864486694E-2,1.230890350E0,-9.714797974E-1,1.571176267E0
8.677421083E0,-1.658551025E-1,1.345252533E0,-1.374741211E0,1.930576517E0
8.687395083E0,-1.782792664E-1,1.602567444E0,-1.507066040E0,2.207091742E0
8.697369084E0,-4.201762390E-1,1.892963562E0,-1.339863739E0,2.356924682E0
8.707343083E0,-1.074914703E0,1.965562592E0,-1.129551086E0,2.508936742E0
8.717317083E0,-1.767823792E0,1.913470917E0,-8.063731384E-1,2.727051438E0
8.727292083E0,-2.324665833E0,1.973645782E0,-3.595523071E-1,3.070606906E0
8.737266083E0,-2.744692383E0,2.042801971E0,1.754351807E-1,3.425952958E0
8.747240084E0,-2.871628418E0,2.099833374E0,6.698570251E-1,3.619980442E0
8.757214083E0,-2.779569855E0,2.083068237E0,1.019978943E0,3.620157304E0
8.767188083E0,-2.584375763E0,1.977388000E0,1.228645020E0,3.478308493E0
8.777162083E0,-2.261347504E0,1.810485077E0,1.390009460E0,3.213047626E0
8.787136083E0,-2.140548706E0,1.532662811E0,1.632205811E0,3.097595820E0
8.797110084E0,-2.170935516E0,1.294807434E0,2.039209442E0,3.247747289E0
8.807084083E0,-2.168540497E0,1.310973816E0,2.588267670E0,3.622202336E0
8.817058083E0,-2.366578674E0,1.355281677E0,3.428919525E0,4.381206701E0
8.827032083E0,-2.753224640E0,1.334175568E0,4.470154266E0,5.416876363E0
8.837006083E0,-2.986888733E0,1.520987091E0,5.802533569E0,6.701067218E0
8.846980084E0,-3.047512665E0,1.981878662E0,7.389234009E0,8.235044366E0
8.856954083E0,-3.264710999E0,2.496358795E0,9.195827179E0,1.007240699E1
8.866928083E0,-3.686533813E0,2.988684998E0,1.117471207E1,1.214071494E1
8.876902083E0,-3.829486542E0,3.472628632E0,1.268387375E1,1.369688907E1
8.886876083E0,-3.522474976E0,4.229604492E0,1.329849564E1,1.439261513E1
8.896850083E0,-3.398083649E0,4.800367584E0,1.361703323E1,1.483287213E1
8.906824083E0,-3.659140778E0,5.093907166E0,1.392554169E1,1.527278340E1
8.916798083E0,-4.398902435E0,5.424868927E0,1.391506348E1,1.556947453E1
8.926772083E0,-5.101241913E0,6.047723694E0,1.383632721E1,1.593868193E1
8.936746083E0,-5.666167145E0,6.667434998E0,1.410995819E1,1.660274254E1
8.946720083E0,-5.841752014E0,7.102131042E0,1.473909988E1,1.737260479E1
8.956694084E0,-5.894592133E0,7.455246735E0,1.517828659E1,1.790830266E1
8.966668083E0,-5.800288239E0,7.901917877E0,1.501886810E1,1.793460479E1
8.976642083E0,-5.638624420E0,8.176896057E0,1.446666641E1,1.754822360E1
8.986616083E0,-6.059998169E0,8.035589905E0,1.433913162E1,1.751870368E1
8.996590083E0,-7.065457306E0,7.454049225E0,1.505000336E1,1.822048676E1
9.006564084E0,-8.051307220E0,6.515500946E0,1.604573273E1,1.909818942E1
9.016538083E0,-8.884774017E0,5.382507019E0,1.652623352E1,1.951991254E1
9.026512083E0,-8.922495575E0,4.808600464E0,1.618808670E1,1.909941666E1
9.036486083E0,-8.044271851E0,4.509372711E0,1.489522522E1,1.751891795E1
9.046460083E0,-6.642137604E0,4.161346436E0,1.326032501E1,1.540360398E1
9.056434083E0,-5.269192657E0,3.792962494E0,1.179562088E1,1.346430940E1
9.066408083E0,-4.183200989E0,3.427871704E0,1.072714279E1,1.201337036E1
9.076382083E0,-3.484004974E0,3.090323639E0,9.865384827E0,1.090936335E1
9.086357083E0,-3.076851654E0,2.844085693E0,9.322314148E0,1.022063504E1
9.096331083E0,-2.880010986E0,2.635269928E0,9.165590057E0,9.962286483E0
9.106305083E0,-2.948568420E0,2.608026581E0,8.878187714E0,9.711749351E0
9.116279083E0,-3.163671112E0,2.646047516E0,8.580307159E0,9.520086833E0
9.126253083E0,-3.467539215E0,2.655328217E0,8.309220886E0,9.387105405E0
9.136227083E0,-3.694018250E0,2.730022888E0,7.747439117E0,9.006753504E0
9.146201083E0,-3.779191132E0,2.687511292E0,7.019053802E0,8.412616646E0
9.156175083E0,-3.642974396E0,2.652933197E0,6.037095795E0,7.533647366E0
9.166149084E0,-3.421584778E0,2.623893585E0,4.978796539E0,6.586385573E0
9.176123083E0,-3.042423248E0,2.583477631E0,3.827839966E0,5.530194815E0
9.186097083E0,-2.633024597E0,2.628833313E0,2.689157867E0,4.590768253E0
9.196071083E0,-2.323618011E0,2.716251526E0,1.863325195E0,4.031030116E0
9.206045083E0,-2.111359406E0,2.891387329E0,1.372944946E0,3.834440905E0
9.216019084E0,-1.980980530E0,3.151097260E0,1.092577972E0,3.879100981E0
9.225993083E0,-2.015109558E0,3.434607697E0,9.282197571E-1,4.088861514E0
9.235967083E0,-2.238744507E0,3.692221985E0,1.212927704E0,4.485050030E0
9.245941083E0,-2.754721527E0,3.950584717E0,2.084864502E0,5.248073007E0
9.255915083E0,-3.588487701E0,4.263284454E0,2.974763947E0,6.316807648E0
9.265889084E0,-4.360582123E0,4.715943146E0,3.541036377E0,7.334421233E0
9.275863083E0,-4.854405212E0,5.285957794E0,3.989503784E0,8.211135135E0
9.285837083E0,-5.309309235E0,5.649551697E0,4.362378387E0,8.895872308E0
9.295811083E0,-6.025719452E0,5.900130615E0,4.432432709E0,9.527187198E0
9.305785083E0,-7.073241119E0,6.269263000E0,4.531975708E0,1.048204190E1
9.315759083E0,-7.895630951E0,6.561455383E0,5.439538422E0,1.161818674E1
9.325733083E0,-8.605305176E0,6.595285034E0,6.795418854E0,1.279557655E1
9.335707083E0,-9.212891693E0,6.156397705E0,8.512947235E0,1.397314842E1
9.345681083E0,-9.723479919E0,5.186863861E0,1.084539688E1,1.546196145E1
9.355655083E0,-1.004441254E1,4.262236633E0,1.339070389E1,1.727332727E1
9.365629083E0,-9.758656769E0,3.632346497E0,1.532198776E1,1.852535106E1
9.375603084E0,-9.037007446E0,2.848875732E0,1.682710785E1,1.931152907E1
9.385577083E0,-7.891888733E0,2.627186737E0,1.751462814E1,1.938933255E1
9.395551083E0,-6.545887756E0,2.664010162E0,1.745175888E1,1.882842226E1
9.405525083E0,-5.338947601E0,2.203118591E0,1.651815033E1,1.749878234E1
9.415499083E0,-4.235592041E0,1.949994965E0,1.507574982E1,1.578039774E1
9.425473084E0,-3.229833527E0,2.039059753E0,1.353769821E1,1.406623127E1
9.435447083E0,-2.490670624E0,2.119592285E0,1.203138062E1,1.246796820E1
9.445421083E0,-1.926643524E0,2.166444855E0,1.064271835E1,1.103054362E1
9.455396083E0,-1.353784790E0,2.279010773E0,9.276958466E0,9.648242417E0
9.465370083E0,-8.893006897E-1,2.437231750E0,7.998766479E0,8.408996344E0
9.475344084E0,-6.245013428E-1,2.541265411E0,6.997648315E0,7.470951329E0
9.485318083E0,-6.050418091E-1,2.303260345E0,5.882467346E0,6.346219811E0
9.495292083E0,-5.453160095E-1,2.165097656E0,4.842729492E0,5.332639716E0
9.505266083E0,-4.837939453E-1,2.240391083E0,4.081262970E0,4.680824309E0
9.515240083E0,-5.507048035E-1,2.390528870E0,3.575165405E0,4.335863436E0
9.525214083E0,-4.544549561E-1,2.525997162E0,3.145259399E0,4.059537863E0
9.535188083E0,-2.924917603E-1,2.772235107E0,2.719544678E0,3.894452744E0
9.545162083E0,-1.166075134E-1,3.125350800E0,2.472408600E0,3.986755475E0
9.555136083E0,1.833686829E-1,3.345093842E0,2.393672333E0,4.117395308E0
9.565110083E0,3.969744873E-1,3.566333771E0,2.343825989E0,4.286005783E0
9.575084083E0,6.230044556E-1,3.829037476E0,2.182012482E0,4.450937094E0
9.585058084E0,7.129673767E-1,4.084406433E0,2.032623138E0,4.617602756E0
9.595032083E0,4.056564331E-1,4.377946014E0,2.133363647E0,4.886942694E0
9.605006708E0,-2.065704346E-1,4.745132446E0,2.509381714E0,5.371773437E0
9.614980708E0,-1.282383270E0,5.045557709E0,3.173849945E0,6.097170075E0
9.624954708E0,-3.037184143E0,5.186265106E0,4.421655121E0,7.461425285E0
9.634928708E0,-5.018014984E0,5.193749542E0,5.765111389E0,9.240780163E0
9.644902708E0,-6.434818726E0,5.346432037E0,6.691534882E0,1.071297655E1
9.654876709E0,-7.027735748E0,5.216053162E0,7.281458130E0,1.138489845E1
9.664850708E0,-7.085066528E0,4.613256683E0,7.680079193E0,1.142208043E1
9.674824708E0,-6.644832001E0,3.890709229E0,8.042325897E0,1.113420031E1
9.684798708E0,-5.536387024E0,3.459156647E0,8.375832367E0,1.061941212E1
9.694772708E0,-4.090843048E0,3.184477844E0,9.170080719E0,1.053405318E1
9.704746709E0,-2.907254333E0,3.028053131E0,1.016446289E1,1.099716051E1
9.714720708E0,-2.330952759E0,2.972368927E0,1.104927292E1,1.167710366E1
9.724694708E0,-2.165247345E0,2.840642853E0,1.177376633E1,1.230362229E1
9.734668708E0,-2.016905823E0,2.778821411E0,1.208871140E1,1.256688906E1
9.744642708E0,-1.884880371E0,2.581980743E0,1.211535599E1,1.253001394E1
9.754616708E0,-1.900148621E0,2.235601044E0,1.204290665E1,1.239516346E1
9.764590708E0,-2.046544189E0,1.975292358E0,1.197404984E1,1.230723334E1
9.774564708E0,-2.469564514E0,1.859882355E0,1.186013672E1,1.225645766E1
9.784538708E0,-2.873125305E0,1.792223053E0,1.151645142E1,1.200398124E1
9.794512708E0,-2.949466553E0,1.794468384E0,1.081471069E1,1.135241988E1
9.804486708E0,-2.630928955E0,1.898052979E0,9.704170074E0,1.023207257E1
9.814460709E0,-2.254312134E0,1.910477142E0,8.696166229E0,9.184506149E0
9.824434708E0,-1.987716522E0,2.067650299E0,7.991132355E0,8.490252708E0
9.834408708E0,-1.756896515E0,2.410138092E0,7.563920746E0,8.130704031E0
9.844382708E0,-1.657652893E0,2.809806976E0,7.284302216E0,7.981471489E0
9.854356708E0,-1.688039703E0,3.367547150E0,7.090904388E0,8.029369645E0
9.864330709E0,-1.783241730E0,3.998485107E0,7.045997772E0,8.295415531E0
9.874304708E0,-1.913919983E0,4.534969482E0,7.424560547E0,8.908037787E0
9.884279708E0,-2.211052094E0,5.118156738E0,8.380921783E0,1.006598876E1
9.894253708E0,-2.635419617E0,5.897585907E0,9.440268860E0,1.143877757E1
9.904227708E0,-3.310366058E0,6.242618408E0,1.064122147E1,1.277358220E1
9.914201709E0,-4.165388031E0,6.232738953E0,1.186507645E1,1.403486841E1
9.924175708E0,-5.193450165E0,6.304140472E0,1.305420364E1,1.539890725E1
9.934149708E0,-6.127507782E0,6.425388336E0,1.413465683E1,1.669192891E1
9.944123708E0,-6.524931335E0,6.678511963E0,1.493204865E1,1.761088662E1
9.954097708E0,-6.330934753E0,6.966363373E0,1.533111877E1,1.799039067E1
9.964071708E0,-5.679639130E0,7.142247620E0,1.509026962E1,1.763480193E1
9.974045708E0,-4.822820892E0,7.394473114E0,1.440514435E1,1.689514776E1
9.984019708E0,-4.110302582E0,7.665559387E0,1.371328308E1,1.623913547E1
9.993993708E0,-3.715124359E0,7.813900909E0,1.292157944E1,1.555076884E1
1.000396771E1,-3.386258240E0,8.045918427E0,1.192210785E1,1.477633932E1
1.001394171E1,-2.944077759E0,8.300988007E0,1.094194611E1,1.404635826E1
1.002391571E1,-2.186203766E0,8.445437622E0,9.972561951E0,1.324978850E1
1.003388971E1,-1.511257324E0,8.091723175E0,9.057215424E0,1.223899644E1
1.004386371E1,-1.625020752E0,6.906338196E0,8.748108215E0,1.126355171E1
1.005383771E1,-2.554288330E0,5.373675385E0,9.361382904E0,1.109217138E1
1.006381171E1,-4.147126007E0,3.871399384E0,1.038585251E1,1.183437027E1
1.007378571E1,-5.777535553E0,2.438728638E0,1.114492401E1,1.278814473E1
1.008375971E1,-6.949598236E0,1.462309113E0,1.130104935E1,1.334724616E1
1.009373371E1,-7.549850006E0,9.298663330E-1,1.084973785E1,1.325072443E1
1.010370771E1,-7.647596741E0,6.415658569E-1,9.872569885E0,1.250459831E1
1.011368171E1,-7.363188171E0,5.722599792E-1,8.721613312E0,1.142849773E1
1.012365571E1,-6.727759552E0,6.502478027E-1,7.499554596E0,1.009598385E1
1.013362971E1,-6.077212372E0,6.638694763E-1,6.434818726E0,8.875816860E0
1.014360371E1,-5.480852509E0,7.261399841E-1,5.608087921E0,7.875130071E0
1.015357771E1,-5.042414246E0,7.891589355E-1,5.056335297E0,7.184374704E0
1.016355171E1,-4.668192444E0,9.463320923E-1,4.668791199E0,6.669720862E0
1.017352571E1,-4.325105896E0,1.090781708E0,4.271367645E0,6.175834139E0
1.018349971E1,-3.934268646E0,1.172511749E0,3.746558990E0,5.557873501E0
1.019347371E1,-3.520529022E0,1.129102020E0,3.210074615E0,4.896281753E0
1.020344771E1,-3.206332397E0,1.044228516E0,2.758763123E0,4.356805550E0
1.021342171E1,-2.810555420E0,9.238787842E-1,2.417921906E0,3.820879495E0
1.022339571E1,-2.394271088E0,8.087681580E-1,2.103575592E0,3.288110437E0
1.023336971E1,-2.220482483E0,7.921527100E-1,1.899250488E0,3.027408263E0
1.024334371E1,-2.316133575E0,8.416996765E-1,1.871408386E0,3.094366241E0
1.025331771E1,-2.486179962E0,1.000669098E0,2.007924500E0,3.348759508E0
1.026329171E1,-2.524200897E0,1.235081635E0,2.137854309E0,3.530925921E0
1.027326571E1,-2.610870667E0,1.337319031E0,2.111060028E0,3.614089411E0
1.028323971E1,-2.952909393E0,1.327888641E0,2.146386566E0,3.884576865E0
1.029321371E1,-3.389850769E0,1.366658020E0,2.268233185E0,4.301595537E0
1.030318771E1,-3.710334320E0,1.461710358E0,2.323917389E0,4.615600716E0
1.031316171E1,-3.864663391E0,1.457968140E0,2.434237976E0,4.794456043E0
1.032313571E1,-3.877386932E0,1.496587830E0,2.474504242E0,4.837052387E0
1.033310971E1,-3.707639923E0,1.670825500E0,2.509830780E0,4.778859926E0
1.034308371E1,-3.557352448E0,1.833986206E0,2.675685883E0,4.814307508E0
1.035305771E1,-3.609893188E0,2.061662750E0,3.023113403E0,5.140135871E0
1.036303171E1,-3.729344788E0,2.400558014E0,3.730542297E0,5.795484204E0
1.037300671E1,-3.571273499E0,3.092568970E0,4.675227814E0,6.646482705E0
1.038297971E1,-3.106490021E0,4.039200439E0,5.380860443E0,7.410740823E0
1.039295471E1,-2.333048401E0,4.870122528E0,6.124064941E0,8.164886998E0
1.040292871E1,-1.604214020E0,5.386398926E0,7.066505127E0,9.028969527E0
1.041290271E1,-1.406475220E0,5.604794769E0,8.207582245E0,1.003774393E1
1.042287671E1,-1.835333405E0,5.679339752E0,9.149273987E0,1.092394449E1
1.043285071E1,-2.334245911E0,5.844745789E0,9.467362518E0,1.136840844E1
1.044282471E1,-2.780917053E0,6.208040314E0,9.571396179E0,1.174243965E1
1.045279871E1,-3.620970154E0,6.393953705E0,9.486372986E0,1.199938920E1
1.046277271E1,-4.578379211E0,6.546037445E0,9.523645477E0,1.243028502E1
1.047274671E1,-5.687273254E0,6.701564026E0,1.026684998E1,1.351533373E1
1.048272071E1,-6.522087250E0,6.856791229E0,1.141870468E1,1.483037507E1
1.049269471E1,-6.983427887E0,6.697223053E0,1.244811401E1,1.576631232E1
1.050266871E1,-7.038962402E0,6.232888641E0,1.326346848E1,1.625778240E1
1.051264271E1,-6.903344421E0,5.656437378E0,1.360700409E1,1.627273819E1
1.052261671E1,-6.784491577E0,4.987328796E0,1.349354004E1,1.590529463E1
1.053259071E1,-6.846762085E0,4.359384613E0,1.329939377E1,1.558063734E1
1.054256471E1,-6.841822357E0,3.860322418E0,1.306019119E1,1.524077479E1
1.055253871E1,-6.833739166E0,3.447630615E0,1.296738419E1,1.505786175E1
1.056251271E1,-6.888076172E0,3.100951538E0,1.295945068E1,1.500029519E1
1.057248671E1,-6.545738068E0,2.849324799E0,1.274434799E1,1.460766047E1
1.058246071E1,-5.962101746E0,2.632874908E0,1.223510696E1,1.386277497E1
1.059243471E1,-5.266348572E0,2.434088287E0,1.151914581E1,1.289767162E1
1.060240821E1,-4.503834229E0,2.317181396E0,1.062909668E1,1.177418993E1
1.061238221E1,-3.608995056E0,2.313289490E0,9.522298279E0,1.044271603E1
1.062235621E1,-2.593955841E0,2.399210815E0,8.324788513E0,9.043612289E0
1.063233021E1,-1.787732391E0,2.387535095E0,7.313042450E0,7.897904837E0
1.064230421E1,-1.114282837E0,2.408042450E0,6.566095734E0,7.081942379E0
1.065227821E1,-5.490582275E-1,2.622247009E0,5.971382446E0,6.544849321E0
1.066225221E1,-2.706372070E-1,2.818339233E0,5.557792511E0,6.237414378E0
1.067222621E1,-3.682342529E-1,2.894979858E0,5.459596710E0,6.190613950E0
1.068220021E1,-9.207353210E-1,3.039130096E0,5.603297882E0,6.440575473E0
1.069217421E1,-1.418300629E0,3.478616180E0,5.490582275E0,6.652731839E0
1.070214821E1,-1.728156281E0,3.786376190E0,5.052443390E0,6.546018102E0
1.071212221E1,-1.881886597E0,4.090244293E0,4.540507965E0,6.394357522E0
1.072209621E1,-1.929188232E0,4.523892517E0,4.277953949E0,6.518301982E0
1.073207021E1,-1.802701263E0,5.109325104E0,4.356241150E0,6.952105567E0
1.074204421E1,-1.587448883E0,5.591472473E0,4.772525482E0,7.520741842E0
1.075201821E1,-1.622176666E0,5.928421783E0,5.520520020E0,8.261584791E0
1.076199221E1,-2.012714539E0,6.235732727E0,6.385720825E0,9.149470636E0
1.077196621E1,-2.662962341E0,6.534810791E0,7.365882568E0,1.020055619E1
1.078194021E1,-3.621269531E0,6.844666443E0,8.364755402E0,1.139877996E1
1.079191421E1,-5.106630707E0,6.925198975E0,9.323960724E0,1.268748602E1
1.080188821E1,-7.092101898E0,6.791377258E0,1.028316605E1,1.421844641E1
1.081186221E1,-9.146579590E0,6.204148407E0,1.173080566E1,1.611717026E1
1.082183621E1,-1.061293030E1,5.379812622E0,1.307875259E1,1.768135862E1
1.083181021E1,-1.078716797E1,4.535568237E0,1.382734589E1,1.811435525E1
1.084178421E1,-9.370214539E0,3.647015991E0,1.414229095E1,1.735240731E1
1.085175821E1,-6.912176056E0,2.988086243E0,1.412941772E1,1.601084890E1
1.086173221E1,-4.344864807E0,2.494562531E0,1.378782806E1,1.466986350E1
1.087170621E1,-2.183060303E0,2.206112366E0,1.313009583E1,1.349192723E1
1.088168021E1,-6.813830566E-1,2.028731232E0,1.251622238E1,1.269786817E1
1.089165421E1,5.643264771E-2,1.880689087E0,1.186687271E1,1.201510899E1
1.090162821E1,3.806584167E-1,1.855391693E0,1.101544327E1,1.117709128E1
1.091160221E1,3.927832031E-1,1.840871887E0,1.023796005E1,1.040955878E1
1.092157621E1,4.126918030E-1,1.864971771E0,9.569001160E0,9.757777279E0
1.093155021E1,3.926335144E-1,1.904040527E0,8.825048218E0,9.036648021E0
1.094152421E1,2.414479065E-1,1.949545898E0,8.017776947E0,8.254924196E0
1.095149821E1,8.038284302E-2,2.037263489E0,7.167545013E0,7.451886033E0
1.096147221E1,-9.265731812E-2,2.084265747E0,6.349795532E0,6.683760348E0
1.097144621E1,-2.327659607E-1,2.180814972E0,5.669909363E0,6.079309674E0
1.098142021E1,-2.745291138E-1,2.396666107E0,5.172493744E0,5.707369464E0
1.099139421E1,-3.959266663E-1,2.578687592E0,4.840633850E0,5.498920230E0
1.100136821E1,-6.020480347E-1,2.703378296E0,4.761448517E0,5.508367092E0
1.101134321E1,-1.072968750E0,2.777923279E0,4.914729767E0,5.746537076E0
1.102131721E1,-1.775906982E0,2.883154449E0,5.470224609E0,6.433489136E0
1.103129121E1,-2.246678009E0,3.116219788E0,6.037245483E0,7.155887147E0
1.104126521E1,-2.472408600E0,3.408561859E0,6.775061188E0,7.977001462E0
1.105123921E1,-2.694247284E0,3.531456299E0,7.486082611E0,8.704687523E0
1.106121321E1,-2.851420441E0,3.605851593E0,7.781268768E0,9.037749050E0
1.107118721E1,-2.895428925E0,3.684138794E0,7.825876007E0,9.121443010E0
1.108116121E1,-2.938988342E0,3.787124634E0,7.768245850E0,9.128286205E0
1.109113521E1,-2.968477020E0,3.835324402E0,7.672295380E0,9.076656074E0
1.110110921E1,-2.979404297E0,3.791615295E0,7.626340942E0,9.022985796E0
1.111108321E1,-3.005599823E0,3.500470734E0,7.743696899E0,9.013976222E0
1.112105721E1,-2.943479004E0,3.032843170E0,8.110134888E0,9.145299024E0
1.113103121E1,-2.788102112E0,2.531385956E0,8.674311676E0,9.456485145E0
1.114100521E1,-2.398013306E0,2.173629913E0,9.116791534E0,9.674245330E0
1.115097921E1,-1.998943176E0,1.838027802E0,9.227860565E0,9.619123174E0
1.116095321E1,-1.628313904E0,1.674418030E0,9.042396240E0,9.339165470E0
1.117092721E1,-1.323697357E0,1.570384369E0,8.686586151E0,8.926088769E0
1.118090121E1,-1.031504974E0,1.601669312E0,8.055947571E0,8.278142205E0
1.119087521E1,-6.607260132E-1,1.744622040E0,7.358697510E0,7.591488258E0
1.120084921E1,-4.870870972E-1,1.844165039E0,6.823859711E0,7.085425879E0
1.121082321E1,-4.846920776E-1,1.924398193E0,6.472989349E0,6.770363796E0
1.122079721E1,-4.638853455E-1,2.014959869E0,6.121669922E0,6.461431383E0
1.123077121E1,-5.324427795E-1,2.067051544E0,5.717360687E0,6.102819891E0
1.124074521E1,-7.707472229E-1,2.170636139E0,5.404810638E0,5.875175790E0
1.125071921E1,-1.239572296E0,2.239642639E0,5.333558807E0,5.916028075E0
1.126069321E1,-1.899250488E0,2.271226959E0,5.225633240E0,6.006069187E0
1.127066721E1,-2.432741089E0,2.463427277E0,4.935686188E0,6.028905481E0
1.128064121E1,-2.979254608E0,2.692151642E0,4.957989807E0,6.380070643E0
1.129061521E1,-3.462000732E0,2.805016937E0,5.660029907E0,7.203437210E0
1.130058921E1,-3.913012848E0,2.879861298E0,6.918912048E0,8.454384340E0
1.131056321E1,-4.724924469E0,2.739303589E0,8.604107666E0,1.019114145E1
1.132053721E1,-5.450914764E0,2.575394440E0,1.043809387E1,1.205400066E1
1.133051121E1,-6.090534668E0,2.517315216E0,1.232551895E1,1.397676307E1
1.134048521E1,-6.806046753E0,2.671943665E0,1.415157166E1,1.592885858E1
1.135045921E1,-7.467970276E0,2.816692657E0,1.556807602E1,1.749483720E1
1.136043321E1,-8.014184418E0,2.938239899E0,1.639061554E1,1.848006178E1
1.137040721E1,-8.233628082E0,3.109483795E0,1.658790527E1,1.877818208E1
1.138038121E1,-8.095764771E0,3.244802399E0,1.660616730E1,1.875726372E1
1.139035521E1,-7.597451019E0,3.393143921E0,1.657323578E1,1.854472518E1
1.140032921E1,-6.827452240E0,3.584296417E0,1.625604538E1,1.799222877E1
1.141030321E1,-5.994135132E0,3.800895996E0,1.584006042E1,1.735753383E1
1.142027721E1,-5.245541840E0,3.874991913E0,1.543380524E1,1.675510715E1
1.143025121E1,-4.718188477E0,3.843257904E0,1.494671814E1,1.613803944E1
1.144022521E1,-4.393962708E0,3.627406769E0,1.433733536E1,1.542803206E1
1.145019921E1,-4.311334534E0,3.093766479E0,1.378827713E1,1.477415252E1
1.146017321E1,-4.554279327E0,2.258802795E0,1.312231201E1,1.407262317E1
1.147014721E1,-4.950205994E0,1.346599731E0,1.225980560E1,1.328987222E1
1.148012121E1,-5.624853058E0,4.507127380E-1,1.146001877E1,1.277396352E1
1.149009521E1,-6.687493286E0,-3.534150696E-1,1.089030350E1,1.278460711E1
1.150006921E1,-7.720794525E0,-7.256909180E-1,1.031025970E1,1.290111432E1
1.151004321E1,-8.124954071E0,-6.532415771E-1,9.724078674E0,1.268855032E1
1.152001721E1,-7.903863831E0,-3.993695068E-1,8.959917755E0,1.195452574E1
1.152999121E1,-7.264094238E0,-1.255888367E-1,8.025261383E0,1.082532484E1
1.153996521E1,-6.382577362E0,1.712438965E-1,7.105124817E0,9.552456067E0
1.154993921E1,-5.279371490E0,4.782554626E-1,6.199358368E0,8.156747869E0
1.155991321E1,-4.205654297E0,6.923103333E-1,5.413941650E0,6.890398091E0
1.156988721E1,-3.176095276E0,9.017248535E-1,4.785847778E0,5.814209135E0
1.157986121E1,-2.213297424E0,1.135089569E0,4.208797760E0,4.888874349E0
1.158983521E1,-1.439706116E0,1.309027863E0,3.829935608E0,4.295895065E0
1.159980983E1,-8.881031799E-1,1.426383820E0,3.694317627E0,4.058482572E0
1.160978383E1,-6.870712280E-1,1.444196777E0,3.502566376E0,3.850421071E0
1.161975783E1,-4.462220764E-1,1.479223938E0,2.868035889E0,3.257736555E0
1.162973183E1,-2.151026917E-1,1.422192535E0,2.443668365E0,2.835562705E0
1.163970583E1,-6.301895142E-2,1.324894867E0,2.418520660E0,2.758361829E0
1.164967983E1,-1.907034302E-1,1.388961639E0,2.993175659E0,3.305250786E0
1.165965383E1,-4.534071350E-1,1.523382111E0,3.485052795E0,3.830386935E0
1.166962783E1,-6.375242615E-1,1.704355774E0,3.730991364E0,4.151091705E0
1.167960183E1,-8.800199890E-1,1.773961029E0,3.964655457E0,4.431688821E0
1.168957583E1,-1.318308563E0,1.671124878E0,3.999682617E0,4.530789872E0
1.169954983E1,-1.935325470E0,1.588646393E0,3.968697052E0,4.692530056E0
1.170952383E1,-2.858605499E0,1.413660278E0,4.306694183E0,5.358887531E0
1.171949783E1,-3.489543457E0,1.456770630E0,4.717440033E0,6.045935384E0
1.172947183E1,-3.702999573E0,1.684596863E0,4.729864197E0,6.238724849E0
1.173944583E1,-3.885769501E0,1.667981415E0,4.867128754E0,6.447504084E0
1.174941983E1,-3.792214050E0,1.548829193E0,5.125790863E0,6.561515926E0
1.175939383E1,-3.510649567E0,1.526375885E0,5.459596710E0,6.667959205E0
1.176936783E1,-3.463946686E0,1.556912384E0,6.227200470E0,7.293896661E0
1.177934183E1,-3.709585876E0,1.376537476E0,7.354356537E0,8.351194098E0
1.178931583E1,-3.891757050E0,1.244661713E0,8.988208923E0,9.873340638E0
1.179928983E1,-3.593726807E0,1.766027527E0,1.051877609E1,1.125514887E1
1.180926383E1,-3.372935944E0,2.316432953E0,1.152438492E1,1.222922754E1
1.181923783E1,-3.767216034E0,2.253863068E0,1.211595474E1,1.288674415E1
1.182921183E1,-3.842659149E0,3.093616791E0,1.248164429E1,1.342117500E1
1.183918583E1,-3.852987671E0,4.195774841E0,1.287577469E1,1.407961698E1
1.184915983E1,-5.131778412E0,3.654650116E0,1.279374527E1,1.426083922E1
1.185913383E1,-6.402336273E0,2.712209930E0,1.306378372E1,1.479893366E1
1.186910783E1,-7.551496582E0,1.581161957E0,1.392614044E1,1.592050757E1
1.187908183E1,-7.891289978E0,9.132508850E-1,1.486259308E1,1.685239323E1
1.188905683E1,-7.245083771E0,8.647517395E-1,1.582164871E1,1.742307672E1
1.189902983E1,-6.028563538E0,1.174457703E0,1.660511948E1,1.770460172E1
1.190900383E1,-4.906796265E0,1.453926544E0,1.726434860E1,1.800689547E1
1.191897883E1,-4.493356018E0,1.309027863E0,1.757734772E1,1.818974862E1
1.192895283E1,-4.881648560E0,1.053958282E0,1.766416718E1,1.835658254E1
1.193892683E1,-5.422473907E0,1.027912445E0,1.786235504E1,1.869554907E1
1.194890083E1,-6.064039764E0,1.062191162E0,1.761132706E1,1.865635734E1
1.195887483E1,-6.669380951E0,1.116977234E0,1.676274170E1,1.807533650E1
1.196884883E1,-7.350165253E0,8.857081604E-1,1.585592743E1,1.749913835E1
1.197882283E1,-7.934699707E0,3.414399719E-1,1.466186050E1,1.667471721E1
1.198879683E1,-7.932304688E0,-1.450483704E-1,1.283131714E1,1.508592709E1
1.199877083E1,-6.636898499E0,3.659889221E-1,1.095691498E1,1.281547328E1
1.200874483E1,-4.315825195E0,1.891017609E0,9.503138123E0,1.060716404E1
1.201871883E1,-2.388732605E0,3.082390137E0,8.076155548E0,8.968358872E0
1.202869283E1,-1.663041687E0,3.498075714E0,7.409441986E0,8.360745894E0
1.203866683E1,-1.819915466E0,3.213816833E0,6.738088074E0,7.683914486E0
1.204864083E1,-2.206411743E0,2.481838989E0,5.892496490E0,6.763822325E0
1.205861483E1,-2.811902618E0,1.145867157E0,5.271288300E0,6.083279396E0
1.206858883E1,-2.836601257E0,1.841171265E-1,4.856800232E0,5.627496273E0
1.207856283E1,-2.019749908E0,-2.424957275E-2,4.749323730E0,5.161012849E0
1.208853683E1,-8.137078857E-1,6.571334839E-1,5.101840668E0,5.207948074E0
1.209851083E1,-1.287322998E-1,1.329834595E0,5.822142792E0,5.973472921E0
1.210848483E1,-9.475296021E-2,1.562450867E0,6.382876740E0,6.572012348E0
1.211845883E1,-1.002914429E-1,1.426533508E0,7.026987305E0,7.171025506E0
1.212843283E1,-2.338137817E-1,1.086740112E0,7.410489807E0,7.493399238E0
1.213840683E1,5.688171387E-2,1.413660278E0,7.754923553E0,7.882925233E0
1.214838083E1,6.144721985E-1,1.793270874E0,8.267008667E0,8.481558159E0
1.215835483E1,1.015488281E0,2.029329987E0,8.458610229E0,8.757709955E0
1.216832883E1,1.342857513E0,2.264191589E0,8.450676727E0,8.851201444E0
1.217830283E1,1.309177551E0,2.556533661E0,8.461454315E0,8.935659984E0
1.218827683E1,9.101074219E-1,2.825224915E0,8.664731598E0,9.159026422E0
1.219825083E1,2.329156494E-1,2.972817993E0,8.463849335E0,8.973775241E0
1.220822483E1,-3.794609070E-1,2.943479004E0,8.314160614E0,8.827985384E0
1.221819883E1,-8.827143860E-1,2.673141174E0,8.428073730E0,8.885791762E0
1.222817283E1,-1.307530975E0,2.179318085E0,8.491242371E0,8.863422678E0
1.223814683E1,-1.553170166E0,1.413809967E0,9.085805969E0,9.325398989E0
1.224812083E1,-1.645677795E0,7.619155884E-1,9.972561951E0,1.013611181E1
1.225809483E1,-1.456920319E0,4.044589233E-1,1.067579956E1,1.078234205E1
1.226806883E1,-1.314566345E0,1.389111328E-1,1.081755478E1,1.089802149E1
1.227804283E1,-1.258133698E0,3.712280273E-2,1.073747131E1,1.081099296E1
1.228801683E1,-1.005608826E0,2.389031982E-1,1.037267990E1,1.042404970E1
1.229799083E1,-6.565347290E-1,4.828958130E-1,9.824220428E0,9.857968008E0
1.230796483E1,-4.599934387E-1,6.833290100E-1,9.535470886E0,9.570984146E0
1.231793883E1,-3.177891541E-1,9.563612366E-1,9.110654297E0,9.166222694E0
1.232791283E1,-2.923420715E-1,1.262923737E0,9.119186554E0,9.210863350E0
1.233788683E1,-1.311273193E-1,1.454076233E0,9.338181152E0,9.451622046E0
1.234786083E1,4.550537109E-2,1.473086700E0,9.260043640E0,9.376591245E0
1.235783483E1,2.686912537E-1,1.708547058E0,9.131461029E0,9.293810229E0
1.236780883E1,-8.187973022E-2,2.002685394E0,8.929530945E0,9.151719837E0
1.237778283E1,-3.508703613E-1,2.319875793E0,8.658744049E0,8.970996724E0
1.238775683E1,-6.851252747E-1,2.702480164E0,8.064180450E0,8.532514402E0
1.239773083E1,-8.976832581E-1,3.180286560E0,7.652087402E0,8.335136439E0
1.240770483E1,-9.948312378E-1,3.586541748E0,7.346872101E0,8.235866716E0
1.241767883E1,-9.976753235E-1,3.729644165E0,6.964118042E0,7.962696889E0
1.242765283E1,-9.300160217E-1,3.628005524E0,6.821464691E0,7.782013519E0
1.243762683E1,-8.913963318E-1,3.621419220E0,7.019951935E0,7.949150254E0
1.244760083E1,-9.360035706E-1,3.655548248E0,7.264393616E0,8.185997208E0
1.245757483E1,-1.082698517E0,3.656446381E0,7.536378021E0,8.446231698E0
1.246754883E1,-1.221609650E0,3.365451508E0,8.151898041E0,8.903484467E0
1.247752283E1,-1.301393738E0,2.985092468E0,8.719966736E0,9.308180412E0
1.248749683E1,-1.116677856E0,2.877615967E0,9.134155426E0,9.641599371E0
1.249747083E1,-7.406597900E-1,2.844085693E0,9.475146332E0,9.920473697E0
1.250744483E1,-4.474195862E-1,2.798580322E0,9.689650269E0,1.009562076E1
1.251741883E1,-2.438429260E-1,2.716101837E0,9.767189026E0,1.014074208E1
1.252739283E1,-1.312770081E-1,2.652633820E0,9.664951630E0,1.002322253E1
1.253736683E1,-2.218386841E-1,2.688259735E0,9.382489014E0,9.762533119E0
1.254734083E1,-4.375401306E-1,2.947071533E0,9.037456512E0,9.515896815E0
1.255731483E1,-7.252418518E-1,3.229085083E0,8.486003265E0,9.108524449E0
1.256728883E1,-1.058299255E0,3.421285400E0,7.955805817E0,8.724679782E0
1.257726283E1,-1.197809143E0,3.613036652E0,7.619455261E0,8.517328165E0
1.258723683E1,-1.243164825E0,3.691473541E0,7.331753540E0,8.302231366E0
1.259721083E1,-1.185684357E0,3.730542297E0,7.090605011E0,8.099350137E0
1.260718533E1,-1.071621552E0,3.580703888E0,7.044051819E0,7.974238466E0
1.261715933E1,-9.187893677E-1,3.206033020E0,7.067702637E0,7.815065079E0
1.262713333E1,-7.197033691E-1,2.912044373E0,7.145840149E0,7.749903664E0
1.263710733E1,-6.849755859E-1,2.691702576E0,7.305857391E0,7.816009630E0
1.264708133E1,-8.211923218E-1,2.609074402E0,7.645351410E0,8.119915286E0
1.265705533E1,-9.424401855E-1,2.586621094E0,7.933801575E0,8.397857442E0
1.266702933E1,-1.151405640E0,2.497406616E0,8.060138855E0,8.516373237E0
1.267700333E1,-1.243015137E0,2.448907471E0,8.173602905E0,8.622645701E0
1.268697733E1,-1.193468170E0,2.490970001E0,8.236472168E0,8.687276420E0
1.269695133E1,-1.179696808E0,2.590662689E0,8.178093567E0,8.659355179E0
1.270692533E1,-1.202599182E0,2.786904602E0,8.119864655E0,8.668637959E0
1.271689933E1,-1.085093536E0,3.079396362E0,8.212971039E0,8.838156099E0
1.272687333E1,-8.994795227E-1,3.390449524E0,8.364306335E0,9.070051370E0
1.273684733E1,-6.532415771E-1,3.592379608E0,8.435109100E0,9.191462416E0
1.274682133E1,-4.227209473E-1,3.905378723E0,8.498726807E0,9.362640296E0
1.275679533E1,-3.417393494E-1,4.179758148E0,8.592132568E0,9.560957381E0
1.276676933E1,-3.993695068E-1,4.529880066E0,8.821306000E0,9.924452073E0
1.277674333E1,-5.825885010E-1,4.686604156E0,9.250613251E0,1.038641003E1
1.278671733E1,-7.644602966E-1,4.957540741E0,9.788145447E0,1.099860905E1
1.279669133E1,-8.533753967E-1,5.437442780E0,1.042043060E1,1.178471075E1
1.280666533E1,-9.807604980E-1,5.763464813E0,1.121677460E1,1.264893079E1
1.281663933E1,-1.095571747E0,6.049669647E0,1.215188004E1,1.361862580E1
1.282661333E1,-1.223405914E0,6.243965607E0,1.310509781E1,1.456802722E1
1.283658733E1,-1.374441833E0,6.230194244E0,1.403870636E1,1.542043083E1
1.284656133E1,-1.330133972E0,6.280190277E0,1.531719772E1,1.660802795E1
1.285653533E1,-1.251098328E0,6.327192535E0,1.640259064E1,1.762508417E1
1.286650933E1,-1.324745178E0,6.217321014E0,1.714908829E1,1.828937559E1
1.287648333E1,-1.534758453E0,6.214027863E0,1.759396317E1,1.872210367E1
1.288645733E1,-1.669777679E0,6.577771454E0,1.718621109E1,1.847758335E1
1.289643133E1,-1.732946320E0,7.265591125E0,1.632565063E1,1.795323887E1
1.290640533E1,-1.664987640E0,8.087980957E0,1.516616180E1,1.726847080E1
1.291637933E1,-1.487157440E0,8.600964203E0,1.360730347E1,1.616622807E1
1.292635333E1,-1.534159698E0,8.480614471E0,1.210068649E1,1.485601162E1
1.293632733E1,-1.498533783E0,8.051905975E0,1.138412659E1,1.402416242E1
1.294630133E1,-1.555116119E0,7.238796844E0,1.139220978E1,1.358679541E1
1.295627533E1,-1.908980255E0,5.921536102E0,1.183828217E1,1.337362030E1
1.296624933E1,-2.116149445E0,4.509372711E0,1.248134491E1,1.343861978E1
1.297622333E1,-2.219135284E0,3.117566986E0,1.279224838E1,1.335235575E1
1.298619733E1,-2.226320343E0,1.996697845E0,1.266860550E1,1.301679184E1
1.299617133E1,-2.224524078E0,1.167871399E0,1.220352264E1,1.245947013E1
1.300614533E1,-2.426753540E0,4.469705200E-1,1.088326813E1,1.115950001E1
1.301611933E1,-2.820584564E0,-3.219804382E-1,8.634344788E0,9.089074683E0
1.302609333E1,-2.200873260E0,-1.709445190E-1,8.937913513E0,9.206484840E0
1.303606733E1,-1.410067749E0,4.255650330E-1,8.621770935E0,8.746675409E0
1.304604133E1,-1.162781982E0,6.704557800E-1,7.360942841E0,7.482315978E0
1.305601533E1,-1.566642151E0,4.587959290E-1,6.519542542E0,6.720810687E0
1.306598933E1,-1.881287842E0,5.122348022E-1,5.813161469E0,6.131433331E0
1.307596333E1,-2.262694702E0,8.798703003E-1,4.300257568E0,4.938235942E0
1.308593733E1,-3.089874573E0,1.039438477E0,2.446362762E0,4.075837090E0
1.309591133E1,-3.384162598E0,1.085692291E0,1.944007416E0,4.050981248E0
1.310588533E1,-3.093766479E0,1.503174133E0,1.891915741E0,3.925591506E0
1.311585933E1,-3.029400330E0,1.937720490E0,1.567989349E0,3.923087770E0
1.312583333E1,-2.884950714E0,1.859433289E0,1.178199921E0,3.628854892E0
1.313580733E1,-2.571502533E0,1.549278259E0,7.779322815E-1,3.101300862E0
1.314578133E1,-2.269730072E0,1.146765289E0,1.160836029E0,2.795404356E0
1.315575533E1,-1.966161346E0,8.282276917E-1,1.532962189E0,2.627113363E0
1.316572933E1,-1.756597137E0,8.620573425E-1,1.519190826E0,2.477239821E0
1.317570333E1,-1.552571411E0,9.466314697E-1,1.577719116E0,2.407444025E0
1.318567733E1,-1.153351593E0,1.008153534E0,1.692530365E0,2.282816787E0
1.319565133E1,-8.792715454E-1,9.934840393E-1,1.674717407E0,2.136540985E0
1.320562533E1,-8.927435303E-1,8.650511169E-1,1.484013977E0,1.935872395E0
1.321559933E1,-9.177415466E-1,9.581575012E-1,1.292412415E0,1.852200095E0
1.322557333E1,-8.424481201E-1,1.223705292E0,1.550326080E0,2.147250435E0
1.323554733E1,-5.888754272E-1,1.492845612E0,2.366578674E0,2.859380512E0
1.324552133E1,-1.954934692E-1,1.753004608E0,3.151696014E0,3.611707438E0
1.325549533E1,2.549198914E-1,2.098486176E0,3.355122986E0,3.965536361E0
1.326546933E1,9.415420532E-1,2.909799042E0,3.992347870E0,5.029142414E0
1.327544333E1,1.389859772E0,4.267326050E0,5.170398102E0,6.846517241E0
1.328541733E1,1.584155731E0,5.446124725E0,6.997947693E0,9.007835246E0
1.329539133E1,1.343007202E0,5.934708710E0,8.848998413E0,1.073914376E1
1.330536533E1,9.810598755E-1,6.580166473E0,1.011356873E1,1.210559134E1
1.331533933E1,3.486250305E-1,7.223079529E0,1.133517838E1,1.344547084E1
1.332531333E1,-7.116201782E-1,7.556585999E0,1.245455063E1,1.458506862E1
1.333528733E1,-2.399061127E0,7.410789185E0,1.294178741E1,1.510513661E1
1.334526133E1,-4.074227600E0,6.079008636E0,1.316003357E1,1.505789361E1
1.335523533E1,-5.084027710E0,4.960983582E0,1.357856323E1,1.532436215E1
1.336520933E1,-5.021457825E0,4.822371826E0,1.368319565E1,1.535252917E1
1.337518333E1,-3.910318451E0,5.374723206E0,1.408765457E1,1.557691405E1
1.338515733E1,-2.132465515E0,6.339317322E0,1.396670609E1,1.548558143E1
1.339513133E1,6.361770630E-2,7.464826813E0,1.340597214E1,1.534430759E1
1.340510533E1,1.620979156E0,8.133037262E0,1.278251862E1,1.523701581E1
1.341507933E1,2.106569366E0,8.378676453E0,1.225875778E1,1.499723294E1
1.342505333E1,1.689386902E0,7.978558502E0,1.197075668E1,1.448483481E1
1.343502733E1,1.086740112E0,7.638615417E0,1.171523804E1,1.402769588E1
1.344500133E1,-2.589614868E-2,7.203021240E0,1.164997375E1,1.369693667E1
1.345497533E1,-1.474134521E0,6.219566345E0,1.178753769E1,1.340903139E1
1.346494933E1,-2.719993744E0,5.322930908E0,1.190579178E1,1.332215588E1
1.347492333E1,-3.741020508E0,4.346661072E0,1.170805298E1,1.303714698E1
1.348489733E1,-4.220323792E0,3.340453491E0,1.166389481E1,1.284586332E1
1.349487133E1,-4.223766632E0,2.709216156E0,1.100975510E1,1.209937040E1
1.350484533E1,-3.824846191E0,2.563718719E0,1.030996033E1,1.129147395E1
1.351481933E1,-2.856060791E0,2.616708527E0,9.933792572E0,1.066229251E1
1.352479333E1,-1.767674103E0,2.750530243E0,9.607022095E0,1.014815066E1
1.353476733E1,-1.202599182E0,2.725831604E0,9.124725037E0,9.598802515E0
1.354474133E1,-9.128018188E-1,2.567760315E0,8.569978638E0,8.992837931E0
1.355471533E1,-6.746470642E-1,2.483335876E0,8.042475586E0,8.444141122E0
1.356468933E1,-3.887416077E-1,2.682870941E0,7.612120514E0,8.080426675E0
1.357466333E1,-2.722837830E-1,2.931054840E0,7.095993805E0,7.682340074E0
1.358463733E1,-4.061054993E-1,3.141666870E0,6.624025269E0,7.342527028E0
1.359461133E1,-4.644841003E-1,3.418591003E0,6.150709534E0,7.052215091E0
1.360458483E1,-4.107458496E-1,3.656596069E0,5.895639954E0,6.949674628E0
1.361455883E1,-2.633024597E-1,3.996688843E0,5.906267853E0,7.136305055E0
1.362453283E1,-4.198768616E-1,4.093687134E0,5.814209290E0,7.123173492E0
1.363450683E1,-7.562274170E-1,3.811224518E0,5.873785400E0,7.042632119E0
1.364448083E1,-8.867559814E-1,3.860771484E0,6.292764130E0,7.435776558E0
1.365445483E1,-7.595205688E-1,4.002077637E0,6.903494110E0,8.015717549E0
1.366442883E1,-3.571572876E-1,4.069736938E0,7.629933472E0,8.654837079E0
1.367440283E1,-1.586700439E-2,4.143533478E0,8.169710999E0,9.160420255E0
1.368437683E1,1.422042847E-1,4.174069977E0,8.421487427E0,9.400241098E0
1.369435083E1,6.526428223E-2,4.260140991E0,8.742120667E0,9.725108454E0
1.370432483E1,-2.770738220E-1,4.417164459E0,8.986712036E0,1.001744004E1
1.371429883E1,-7.978408813E-1,4.474195862E0,9.334438934E0,1.038203876E1
1.372427283E1,-1.190474396E0,4.618046722E0,9.681716766E0,1.079255412E1
1.373424683E1,-1.592837677E0,4.631818085E0,9.737850037E0,1.090030247E1
1.374422083E1,-1.920057220E0,4.417164459E0,9.835147705E0,1.095116852E1
1.375419483E1,-2.083217926E0,4.210893402E0,9.814490662E0,1.088097639E1
1.376416883E1,-2.046843567E0,4.086352386E0,9.816436615E0,1.082821648E1
1.377414283E1,-1.825753326E0,3.908522186E0,1.005429199E1,1.094069049E1
1.378411683E1,-1.538650360E0,3.619622955E0,1.040366547E1,1.112229160E1
1.379409083E1,-1.307530975E0,3.229085083E0,1.071591614E1,1.126798502E1
1.380406483E1,-1.201251984E0,2.824925537E0,1.097113541E1,1.139249853E1
1.381403883E1,-1.127754822E0,2.467468872E0,1.115839600E1,1.148346789E1
1.382401283E1,-1.032403107E0,2.206262054E0,1.118159775E1,1.144384449E1
1.383398683E1,-9.132508850E-1,2.072140961E0,1.094718521E1,1.117893820E1
1.384396083E1,-7.813751221E-1,2.103126526E0,1.064376617E1,1.087765814E1
1.385393483E1,-6.875202942E-1,2.192939758E0,1.030517029E1,1.055832390E1
1.386390883E1,-6.938072205E-1,2.315085754E0,9.878856812E0,1.017019186E1
1.387388283E1,-8.375083923E-1,2.432142334E0,8.998238068E0,9.358687139E0
1.388385683E1,-1.127305756E0,2.393372955E0,8.189769287E0,8.606472759E0
1.389383083E1,-1.279838562E0,2.495161285E0,7.739206238E0,8.231593392E0
1.390380483E1,-9.690847778E-1,2.939736786E0,7.473808136E0,8.089436676E0
1.391377883E1,-4.944218445E-1,3.195105743E0,7.377558289E0,8.054906578E0
1.392375283E1,-5.882766724E-2,3.204536133E0,7.416776733E0,8.079671382E0
1.393372683E1,2.384541321E-1,3.224744110E0,7.603588257E0,8.262589747E0
1.394370083E1,3.579057312E-1,3.300636292E0,7.811206512E0,8.487475692E0
1.395367483E1,3.712280273E-1,3.448678436E0,8.005951538E0,8.725047463E0
1.396364883E1,2.272274780E-1,3.603755951E0,8.111182709E0,8.878624568E0
1.397362283E1,-1.746867371E-1,3.581602020E0,8.273594971E0,9.017248041E0
1.398359683E1,-5.352868652E-1,3.717070312E0,8.443042603E0,9.240568820E0
1.399357083E1,-5.785469055E-1,4.076622620E0,8.524922333E0,9.467199654E0
1.400354483E1,-6.524931335E-1,4.200265503E0,8.467741241E0,9.474735844E0
1.401351883E1,-7.854167175E-1,4.184847565E0,8.383616180E0,9.402917038E0
1.402349283E1,-9.107061768E-1,4.258793793E0,8.181835785E0,9.268718742E0
1.403346683E1,-9.502239990E-1,4.418361969E0,8.042325897E0,9.225175011E0
1.404344083E1,-8.981323242E-1,4.484075317E0,7.979456635E0,9.197026764E0
1.405341483E1,-8.122109985E-1,4.485871582E0,7.917934570E0,9.136543023E0
1.406338883E1,-6.926097107E-1,4.317471771E0,8.075407104E0,9.183271237E0
1.407336283E1,-6.128256226E-1,3.961961060E0,8.294850769E0,9.212884454E0
1.408333683E1,-6.301895142E-1,3.608995056E0,8.569978638E0,9.320220920E0
1.409331083E1,-6.454577637E-1,3.305126953E0,8.931327209E0,9.545107942E0
1.410328483E1,-8.635542297E-1,3.024161224E0,9.221124573E0,9.742710886E0
1.411325883E1,-1.304088135E0,2.766996002E0,9.338031464E0,9.826278256E0
1.412323283E1,-1.770069122E0,2.502196655E0,9.376651154E0,9.864873018E0
1.413320683E1,-2.090253296E0,2.332599335E0,9.365125122E0,9.875006180E0
1.414318083E1,-2.162103882E0,2.340682526E0,9.225615234E0,9.760402878E0
1.415315483E1,-1.887724457E0,2.505190430E0,9.171577606E0,9.693158335E0
1.416312883E1,-1.559756470E0,2.750380554E0,9.021290131E0,9.559346686E0
1.417310283E1,-1.151705017E0,3.022215271E0,8.832981720E0,9.406475198E0
1.418307683E1,-5.379812622E-1,3.228636017E0,8.760532379E0,9.352028760E0
1.419305083E1,1.032852173E-2,3.559747467E0,8.769663391E0,9.464613289E0
1.420302483E1,2.151026917E-1,3.832480316E0,8.975036316E0,9.761426710E0
1.421299883E1,-1.354682922E-1,3.849844208E0,9.411678314E0,1.016953002E1
1.422297283E1,-6.664141846E-1,3.926634521E0,9.652826843E0,1.044220439E1
1.423294683E1,-1.079105988E0,3.986959076E0,9.978250122E0,1.079934201E1
1.424292083E1,-1.281036072E0,3.991449738E0,1.036145325E1,1.117731801E1
1.425289483E1,-1.406624908E0,4.100572815E0,1.070004913E1,1.154488382E1
1.426286883E1,-1.348246307E0,4.244573364E0,1.134775223E1,1.219039178E1
1.427284283E1,-1.050665131E0,4.447700958E0,1.204051163E1,1.287865914E1
1.428281683E1,-7.837701416E-1,4.811594238E0,1.256636810E1,1.347884795E1
1.429279083E1,-4.983137512E-1,5.204976196E0,1.309566742E1,1.410094319E1
1.430276483E1,-1.736389160E-1,5.580245819E0,1.355416397E1,1.465894453E1
1.431273883E1,-1.079255676E-1,5.951174469E0,1.376507538E1,1.499684719E1
1.432271283E1,-2.856060791E-1,6.265670471E0,1.369202728E1,1.506027252E1
1.433268683E1,-6.857240295E-1,6.531817017E0,1.336271210E1,1.488949044E1
1.434266083E1,-1.174457703E0,6.763684845E0,1.274075546E1,1.447251303E1
1.435263483E1,-1.578018494E0,7.013814697E0,1.212927704E1,1.409975533E1
1.436260883E1,-1.636097717E0,7.597301331E0,1.170969955E1,1.405392710E1
1.437258283E1,-1.282832336E0,7.916587372E0,1.131347351E1,1.386768536E1
1.438255683E1,-7.478448486E-1,7.752827911E0,1.072055649E1,1.325126198E1
1.439253083E1,-3.742218018E-3,7.587122498E0,1.027613068E1,1.277353919E1
1.440250483E1,4.721182251E-1,7.412884827E0,9.916428680E0,1.238988760E1
1.441247883E1,2.854563904E-1,6.727310486E0,9.677375793E0,1.178939328E1
1.442245283E1,-4.679269409E-1,4.992118835E0,9.620494080E0,1.084869174E1
1.443242683E1,-1.172811127E0,3.470532990E0,9.491312714E0,1.017374573E1
1.444240083E1,-1.408271484E0,2.477198639E0,9.460177460E0,9.880015144E0
1.445237483E1,-1.360221405E0,1.918710022E0,9.270072784E0,9.563780625E0
1.446234883E1,-1.735940094E0,1.571731567E0,8.977431335E0,9.277828491E0
1.447232283E1,-2.476001129E0,1.218615875E0,8.519383850E0,8.955194438E0
1.448229683E1,-2.825224915E0,1.005309448E0,7.889194336E0,8.439901076E0
1.449227083E1,-2.932551727E0,9.389973450E-1,7.130721588E0,7.767159456E0
1.450224483E1,-2.883304138E0,8.647517395E-1,6.435866547E0,7.105041628E0
1.451221883E1,-2.636617126E0,7.363188171E-1,5.692811737E0,6.316804631E0
1.452219283E1,-2.250420227E0,7.240443420E-1,4.982389069E0,5.514783064E0
1.453216683E1,-1.894610138E0,6.857240295E-1,4.398752747E0,4.838263195E0
1.454214083E1,-1.386416931E0,7.514373779E-1,3.854783936E0,4.164873255E0
1.455211483E1,-1.011746063E0,8.595126343E-1,3.561543732E0,3.800919075E0
1.456208883E1,-8.141569519E-1,8.283773804E-1,3.328777771E0,3.525595280E0
1.457206283E1,-6.213578796E-1,7.982899475E-1,3.091371460E0,3.252680427E0
1.458203683E1,-4.572990417E-1,8.544232178E-1,2.824775848E0,2.986389131E0
1.459201083E1,-4.575984192E-1,9.744735718E-1,2.780617676E0,2.981749439E0
1.460198408E1,-5.792953491E-1,1.129401398E0,2.909499664E0,3.174321804E0
1.461195808E1,-8.740324402E-1,1.351838837E0,3.085533600E0,3.480218175E0
1.462193208E1,-1.289568329E0,1.477577362E0,3.310665436E0,3.847951008E0
1.463190608E1,-1.720971222E0,1.588197327E0,3.504512329E0,4.214940019E0
1.464188008E1,-2.079924774E0,1.645677795E0,3.861819305E0,4.684868282E0
1.465185408E1,-2.306703186E0,1.750609589E0,4.184548187E0,5.088807036E0
1.466182808E1,-2.144440613E0,1.811981964E0,4.488266602E0,5.294000497E0
1.467180208E1,-1.628463593E0,2.026635590E0,4.899012451E0,5.546121932E0
1.468177608E1,-8.762777710E-1,2.772983551E0,5.237308960E0,5.990551364E0
1.469175008E1,7.764353943E-1,4.459077301E0,6.195765839E0,7.672922300E0
1.470172408E1,1.808239746E0,5.902974701E0,7.419471130E0,9.652118584E0
1.471169808E1,1.478924561E0,6.658603363E0,8.268355865E0,1.071867181E1
1.472167208E1,1.041384430E0,6.963519287E0,9.430988159E0,1.176939336E1
1.473164608E1,3.472778320E-2,6.394402771E0,1.001207977E1,1.187987097E1
1.474162008E1,-8.912466431E-1,6.023923187E0,1.039468414E1,1.204705066E1
1.475159408E1,-1.631906433E0,6.014043732E0,1.121887024E1,1.283335069E1
1.476156808E1,-1.870659943E0,5.966442719E0,1.176238998E1,1.332109701E1
1.477154208E1,-1.732796631E0,5.923931122E0,1.232402206E1,1.378321675E1
1.478151608E1,-1.063089294E0,5.763165436E0,1.262489639E1,1.391877306E1
1.479149008E1,-2.926414490E-1,5.700445862E0,1.299328033E1,1.419176014E1
1.480146408E1,1.895059204E-1,5.470523987E0,1.326990509E1,1.435454375E1
1.481143808E1,3.604504395E-1,5.102140045E0,1.337887848E1,1.432327291E1
1.482141208E1,2.200424194E-1,4.642895050E0,1.372346191E1,1.448924774E1
1.483138608E1,-3.504212952E-1,4.120481415E0,1.415007477E1,1.474197335E1
1.484136008E1,-1.079255676E0,3.631448364E0,1.445543976E1,1.494362569E1
1.485133408E1,-1.680704956E0,3.261717224E0,1.443178894E1,1.489094021E1
1.486130808E1,-1.965263214E0,3.015628967E0,1.403511383E1,1.448933048E1
1.487128208E1,-2.130369873E0,2.585124207E0,1.314835785E1,1.356836973E1
1.488125608E1,-2.103725281E0,2.299069061E0,1.210293182E1,1.249769328E1
1.489123008E1,-2.054477692E0,2.208208008E0,1.097921860E1,1.138596953E1
1.490120408E1,-2.110161896E0,2.135908356E0,9.731862488E0,1.018449975E1
1.491117808E1,-1.695524139E0,2.171384583E0,8.729846191E0,9.154230041E0
1.492115208E1,-1.261576538E0,2.270029449E0,7.688910828E0,8.115661327E0
1.493112608E1,-7.795788574E-1,2.434687042E0,6.846762085E0,7.308460524E0
1.494110008E1,-4.270619202E-1,2.506986694E0,6.308631134E0,6.801925533E0
1.495107408E1,-1.359173584E-1,2.483934631E0,6.027964783E0,6.521101456E0
1.496104808E1,9.984237671E-2,2.501298523E0,5.960006104E0,6.464374336E0
1.497102208E1,3.674858093E-1,2.617007904E0,6.150559845E0,6.694263410E0
1.498099608E1,5.861810303E-1,2.672991486E0,6.619534607E0,7.162871637E0
1.499097008E1,7.807763672E-1,2.840792542E0,7.238796844E0,7.815362676E0
1.500094408E1,9.696835327E-1,3.050955505E0,8.058791656E0,8.671374667E0
1.501091808E1,1.056203613E0,3.130290527E0,8.879385223E0,9.474057568E0
1.502089208E1,8.117619324E-1,3.113525391E0,9.161249084E0,9.709865219E0
1.503086608E1,4.882846069E-1,3.193309479E0,9.354197845E0,9.896295500E0
1.504084008E1,1.074765015E-1,3.481011200E0,9.438472595E0,1.006050471E1
1.505081408E1,-3.656895447E-1,3.924389191E0,9.360784149E0,1.015671400E1
1.506078808E1,-4.863386536E-1,4.567601624E0,9.041947174E0,1.014181042E1
1.507076208E1,-4.478686523E-1,5.058281250E0,9.004974060E0,1.033810202E1
1.508073608E1,-2.210902405E-1,5.406606903E0,9.060957642E0,1.055373074E1
1.509071008E1,-1.640588379E-1,5.436694336E0,8.970994720E0,1.049110608E1
1.510068408E1,-4.424798584E-1,5.228177948E0,8.814719696E0,1.025811466E1
1.511065808E1,-9.274713135E-1,4.845573578E0,8.846004639E0,1.012875039E1
1.512063208E1,-1.296154633E0,4.569697266E0,9.348958740E0,1.048642835E1
1.513060608E1,-1.816921692E0,3.746109924E0,1.057266403E1,1.136291198E1
1.514058008E1,-1.991309052E0,2.816842346E0,1.194291458E1,1.243113515E1
1.515055408E1,-1.586251373E0,2.367027740E0,1.331062042E1,1.361218681E1
1.516052808E1,-1.264869690E0,1.479074249E0,1.386237305E1,1.399831927E1
1.517050208E1,-1.089135132E0,5.101391602E-1,1.328517334E1,1.333950104E1
1.518047608E1,-7.583230591E-1,-6.676116943E-2,1.267369492E1,1.269653708E1
1.519045008E1,2.674937439E-1,2.493814087E-1,1.163290924E1,1.163865634E1
1.520042408E1,1.487307129E0,1.097517700E0,1.089688980E1,1.105254880E1
1.521039808E1,1.950444031E0,1.479523315E0,1.050171158E1,1.078328184E1
1.522037208E1,1.624721375E0,1.517993317E0,9.328601074E0,9.589933329E0
1.523034608E1,1.141975250E0,1.731898499E0,8.559051361E0,8.806868915E0
1.524032008E1,8.635542297E-1,2.262395325E0,8.417296143E0,8.758711827E0
1.525029408E1,4.228706360E-1,2.686912537E0,8.339458008E0,8.771822981E0
1.526026808E1,-2.040257263E-1,2.836002502E0,8.291407928E0,8.765385452E0
1.527024208E1,-9.297166443E-1,2.878364410E0,8.314609680E0,8.847716590E0
1.528021608E1,-1.543290710E0,3.013533325E0,8.298592987E0,8.962687927E0
1.529019008E1,-1.862277374E0,3.251239014E0,8.192164307E0,9.008339923E0
1.530016408E1,-2.070494385E0,3.416794739E0,8.068072357E0,9.003067524E0
1.531013808E1,-2.180814972E0,3.459156647E0,8.036038971E0,9.016631355E0
1.532011208E1,-2.099533997E0,3.396886139E0,8.113428040E0,9.042930554E0
1.533008608E1,-1.786983948E0,3.159629517E0,8.276738434E0,9.037752454E0
1.534006008E1,-1.321751404E0,2.857857056E0,8.546627197E0,9.108194671E0
1.535003408E1,-8.864566040E-1,2.501897278E0,9.066496124E0,9.447044367E0
1.536000808E1,-5.421725464E-1,2.075134735E0,9.726473694E0,9.960141854E0
1.536998208E1,-4.035607910E-1,1.695973206E0,1.025547363E1,1.040259227E1
1.537995608E1,-3.302133179E-1,1.491947479E0,1.059930862E1,1.070888843E1
1.538993008E1,-3.201841736E-1,1.380878448E0,1.079300583E1,1.088569327E1
1.539990408E1,-4.245172119E-1,1.349144440E0,1.072235275E1,1.081523250E1
1.540987808E1,-5.243595886E-1,1.476080475E0,1.024589355E1,1.036494579E1
1.541985208E1,-5.086422729E-1,1.697769470E0,9.618847504E0,9.780765074E0
1.542982608E1,-4.653822327E-1,1.900597687E0,8.983867950E0,9.194494850E0
1.543980008E1,-4.906796265E-1,2.076631622E0,8.361761627E0,8.629729017E0
1.544977408E1,-4.867877197E-1,2.215393066E0,8.012837219E0,8.327694100E0
1.545974808E1,-5.147795105E-1,2.223625946E0,7.935298462E0,8.257025613E0
1.546972208E1,-6.336323547E-1,2.174228668E0,8.027806091E0,8.341128875E0
1.547969608E1,-6.583309937E-1,2.045795746E0,8.323141937E0,8.596125385E0
1.548967008E1,-6.460565186E-1,1.880389709E0,8.717422028E0,8.941291925E0
1.549964408E1,-6.816824341E-1,1.759141846E0,9.025780792E0,9.220845400E0
1.550961808E1,-8.101153564E-1,1.762884064E0,9.136101379E0,9.339828453E0
1.551959208E1,-9.565109253E-1,1.792372742E0,9.099277954E0,9.323324111E0
1.552956608E1,-1.232836304E0,1.825154572E0,8.973240051E0,9.239594774E0
1.553954008E1,-1.475032654E0,1.895208893E0,8.735085297E0,9.059208200E0
1.554951408E1,-1.429377594E0,1.964365082E0,8.617280273E0,8.953176520E0
1.555948808E1,-1.218316498E0,2.073787537E0,8.557704163E0,8.889273894E0
1.556946208E1,-1.046024780E0,2.275867310E0,8.407266998E0,8.772449956E0
1.557943608E1,-8.363108826E-1,2.539768524E0,8.258177032E0,8.680283863E0
1.558941008E1,-5.683680725E-1,2.741848297E0,8.257129211E0,8.718999780E0
1.559938408E1,-3.333567810E-1,2.986589355E0,8.350534973E0,8.874811382E0
1.560935850E1,-1.963916016E-1,3.286415863E0,8.797056427E0,9.392938873E0
1.561933250E1,-1.904040527E-1,3.658991089E0,9.619446259E0,1.029360072E1
1.562930650E1,-4.403842163E-1,3.849095764E0,1.059481796E1,1.128094163E1
1.563928050E1,-6.909631348E-1,3.959266663E0,1.176134216E1,1.242909458E1
1.564925450E1,-9.116043091E-1,4.071084137E0,1.277937515E1,1.344310893E1
1.565922850E1,-1.114282837E0,4.211492157E0,1.373633514E1,1.441059317E1
1.566920250E1,-1.252744904E0,4.417613525E0,1.465078354E1,1.535350570E1
1.567917650E1,-1.504371643E0,4.548441467E0,1.536614594E1,1.609564832E1
1.568915050E1,-1.438658295E0,4.899760895E0,1.564830917E1,1.646046702E1
1.569912450E1,-1.639540558E0,4.763993225E0,1.609033997E1,1.686068696E1
1.570909850E1,-1.749561768E0,4.770130463E0,1.597253494E1,1.676117488E1
1.571907250E1,-1.296454010E0,5.503605194E0,1.547886154E1,1.647924809E1
1.572904650E1,-6.517446899E-1,6.187532959E0,1.476035568E1,1.601806590E1
1.573902050E1,-2.372566223E-1,6.531218262E0,1.357541977E1,1.506668924E1
1.574899450E1,-2.386038208E-1,6.519093475E0,1.237671249E1,1.399065844E1
1.575896850E1,-6.197113037E-1,6.065836029E0,1.147783173E1,1.299688539E1
1.576894250E1,-1.028211823E0,5.196743317E0,1.140059235E1,1.257127147E1
1.577891650E1,-1.212179260E0,4.118086395E0,1.211849945E1,1.285636197E1
1.578889050E1,-1.415905609E0,2.996319122E0,1.311901886E1,1.353112607E1
1.579886450E1,-1.657802582E0,1.974094849E0,1.368574036E1,1.392640833E1
1.580883850E1,-2.279609528E0,5.123844910E-1,1.374022705E1,1.393746738E1
1.581881250E1,-3.018772430E0,-1.176104279E0,1.303429504E1,1.343089928E1
1.582878650E1,-2.853665771E0,-1.587598572E0,1.226055405E1,1.268798893E1
1.583876050E1,-2.382745056E0,-1.434167633E0,1.186387894E1,1.218548047E1
1.584873450E1,-2.405497742E0,-1.221160583E0,1.088341782E1,1.121278003E1
1.585870850E1,-2.581831055E0,-9.536668396E-1,9.720486145E0,1.010263248E1
1.586868250E1,-2.254611511E0,-6.108796692E-1,8.688232727E0,8.996768028E0
1.587865650E1,-1.914967804E0,-2.637515259E-1,7.699239349E0,7.938195835E0
1.588863050E1,-1.584305420E0,4.730163574E-2,6.832242279E0,7.013686311E0
1.589860450E1,-1.294208679E0,2.165995789E-1,5.617967377E0,5.769180958E0
1.590857850E1,-9.029223633E-1,3.541635132E-1,4.678670654E0,4.778143958E0
1.591855250E1,-6.819818115E-1,3.436853027E-1,4.203109589E0,4.271925677E0
1.592852650E1,-3.254232788E-1,3.073109436E-1,3.705843658E0,3.732776118E0
1.593850050E1,7.484436035E-4,3.291654968E-1,3.410208435E0,3.426057801E0
1.594847450E1,8.412506104E-2,3.920347595E-1,3.097658386E0,3.123500561E0
1.595844850E1,1.432521057E-1,4.541555786E-1,2.692451019E0,2.734240470E0
1.596842250E1,-9.714797974E-2,4.198768616E-1,2.499801636E0,2.536679429E0
1.597839650E1,-3.617976379E-1,3.852987671E-1,2.571053467E0,2.624817822E0
1.598837050E1,-6.653663635E-1,3.772155762E-1,2.531535645E0,2.644556051E0
1.599834450E1,-9.812095642E-1,4.170327759E-1,2.526745605E0,2.742468213E0
1.600831850E1,-1.109043732E0,5.264552307E-1,2.863994293E0,3.116022532E0
1.601829250E1,-1.230441284E0,5.960604858E-1,2.454296265E0,2.809420583E0
1.602826650E1,-1.313817902E0,6.394702148E-1,2.059567108E0,2.525243811E0
1.603824050E1,-1.371298370E0,6.360273743E-1,1.961071930E0,2.476043852E0
1.604821450E1,-1.345701599E0,6.159690857E-1,1.967358856E0,2.461875622E0
1.605818850E1,-1.343007202E0,5.972579956E-1,2.115700378E0,2.576154799E0
1.606816250E1,-1.332079926E0,5.511538696E-1,2.146685944E0,2.585820577E0
1.607813650E1,-1.270857239E0,5.038522339E-1,2.343825989E0,2.713386346E0
1.608811050E1,-1.107247467E0,4.927752686E-1,2.776875458E0,3.029828663E0
1.609808450E1,-8.006849670E-1,6.765930176E-1,3.473975830E0,3.628688826E0
1.610805850E1,-3.088078308E-1,1.203347626E0,4.719535675E0,4.880309905E0
1.611803250E1,2.032772827E-1,1.892215118E0,6.295458527E0,6.576822772E0
1.612800650E1,7.647596741E-1,2.740201721E0,7.887847137E0,8.385206932E0
1.613798050E1,1.256487122E0,3.663182373E0,9.040300598E0,9.834871625E0
1.614795450E1,1.548380127E0,4.618795166E0,9.834848328E0,1.097519892E1
1.615792850E1,1.612297211E0,5.711073761E0,1.072938812E1,1.226114331E1
1.616790250E1,1.374890900E0,6.834188232E0,1.151749924E1,1.346288388E1
1.617787650E1,7.444020081E-1,7.587421875E0,1.206506058E1,1.427195823E1
1.618785050E1,6.810836792E-2,7.625442810E0,1.296139664E1,1.503827848E1
1.619782450E1,-4.668791199E-1,6.985523529E0,1.378857651E1,1.546416364E1
1.620779850E1,-7.701484680E-1,6.255641327E0,1.467114120E1,1.596773501E1
1.621777250E1,-6.846762085E-1,5.810616760E0,1.577509552E1,1.682515044E1
1.622774650E1,-1.359173584E-1,5.737868042E0,1.723665619E1,1.816711094E1
1.623772050E1,4.522096252E-1,5.544170837E0,1.868803802E1,1.949833555E1
1.624769450E1,1.703457642E-1,4.005819855E0,1.875854141E1,1.918224404E1
1.625766850E1,-8.129594421E-1,1.940414886E0,1.840497665E1,1.852482871E1
1.626764250E1,-1.918859711E0,5.011578369E-1,1.820454346E1,1.831225230E1
1.627761650E1,-2.538421326E0,-3.876937866E-2,1.764919830E1,1.783085210E1
1.628759050E1,-2.121538239E0,5.182223511E-1,1.654838745E1,1.669187246E1
1.629756450E1,-1.355581055E0,1.599873047E0,1.527363831E1,1.541691347E1
1.630753850E1,-8.771759033E-1,2.317630463E0,1.410232407E1,1.431839351E1
1.631751250E1,-7.559280396E-1,2.622396698E0,1.257235565E1,1.286516686E1
1.632748650E1,-7.060816956E-1,2.591860199E0,1.073881851E1,1.106971154E1
1.633746050E1,-5.623805237E-1,2.604134674E0,9.503886566E0,9.870240580E0
1.634743450E1,-2.890489197E-1,2.702031097E0,8.871751099E0,9.278603822E0
1.635740850E1,-7.035369873E-3,2.852019196E0,8.318651276E0,8.793976463E0
1.636738250E1,5.825885010E-1,3.462898865E0,7.780370636E0,8.536114171E0
1.637735650E1,4.445755005E-2,3.754791870E0,7.708220673E0,8.574211591E0
1.638733050E1,-4.773573303E-1,3.333268433E0,7.866142273E0,8.556561384E0
1.639730450E1,-9.710307312E-1,2.724035339E0,8.023764496E0,8.529013184E0
1.640727850E1,-1.411265259E0,2.224673767E0,8.363857269E0,8.768976646E0
1.641725250E1,-1.636397095E0,1.842219086E0,8.544082489E0,8.892295103E0
1.642722650E1,-1.621428223E0,1.606758728E0,8.507857819E0,8.808765393E0
1.643720050E1,-1.303639069E0,1.667382660E0,8.537496185E0,8.795935474E0
1.644717450E1,-6.716532898E-1,2.071691895E0,8.552764435E0,8.825690054E0
1.645714850E1,3.727249146E-2,2.739752655E0,8.537645874E0,8.966550670E0
1.646712250E1,4.947212219E-1,3.293002167E0,8.485554199E0,9.115549486E0
1.647709650E1,6.514453125E-1,3.569028168E0,8.316405945E0,9.073309809E0
1.648707050E1,8.273295593E-1,4.008514252E0,8.353229370E0,9.302102000E0
1.649704450E1,8.693920898E-1,4.529281311E0,8.386160889E0,9.570680553E0
1.650701850E1,7.060816956E-1,4.986730042E0,8.259673920E0,9.674101567E0
1.651699250E1,2.817141724E-1,5.311105499E0,8.114924927E0,9.702536321E0
1.652696650E1,-4.342469788E-1,5.398972778E0,8.026608582E0,9.683177310E0
1.653694050E1,-1.288670197E0,5.134173431E0,8.163573761E0,9.729560332E0
1.654691450E1,-2.279010773E0,4.377646637E0,8.390052795E0,9.733995382E0
1.655688850E1,-2.746338959E0,3.626209259E0,8.803343353E0,9.909118299E0
1.656686250E1,-2.678829346E0,3.131637726E0,9.661359100E0,1.050357754E1
1.657683650E1,-2.458936615E0,2.582729187E0,1.043120819E1,1.102392687E1
1.658681050E1,-2.129471741E0,1.862876129E0,1.046533722E1,1.084104425E1
1.659678450E1,-1.703906708E0,1.131047974E0,9.993668060E0,1.020078276E1
1.660675821E1,-1.201102295E0,5.031037903E-1,9.338031464E0,9.428392852E0
1.661673221E1,-6.601272583E-1,1.248403931E-1,8.840466156E0,8.865957082E0
1.662670621E1,3.345542908E-1,7.385641479E-1,8.548273773E0,8.586640092E0
1.663668021E1,1.623224487E0,2.144739990E0,8.955726471E0,9.350925301E0
1.664665521E1,2.040556641E0,2.839744720E0,9.346264343E0,9.979011908E0
1.665662821E1,1.603016510E0,2.906805267E0,9.254205780E0,9.831556510E0
1.666660221E1,9.900411987E-1,2.772085419E0,8.794661407E0,9.274195837E0
1.667657621E1,4.649331665E-1,2.878963165E0,8.302035828E0,8.799340353E0
1.668655121E1,4.056564331E-2,3.264710999E0,7.924221497E0,8.570488306E0
1.669652521E1,-2.972817993E-1,3.672912140E0,7.332501984E0,8.206353965E0
1.670649921E1,-6.435118103E-1,4.023183746E0,6.732100525E0,7.869008348E0
1.671647321E1,-1.079555054E0,4.175716553E0,6.329886932E0,7.659602889E0
