"Time (s)","Acceleration x (m/s^2)","Acceleration y (m/s^2)","Acceleration z (m/s^2)","Absolute acceleration (m/s^2)"
-3.176666796E-4,3.608695679E0,2.160008240E0,9.049281921E0,9.978868843E0
9.656124981E-3,3.736978912E0,1.949994965E0,8.306077423E0,9.314419677E0
1.963012503E-2,4.104165344E0,1.803150330E0,8.160729675E0,9.310909360E0
2.960412507E-2,4.173471222E0,2.028431854E0,7.633376312E0,8.933131128E0
3.957712511E-2,3.643273773E0,2.338437195E0,7.376360779E0,8.552919422E0
4.955112492E-2,3.268004150E0,2.270628204E0,7.581883392E0,8.562742513E0
5.952512496E-2,3.271596680E0,2.179467773E0,7.733069000E0,8.674893704E0
6.949912501E-2,3.325634308E0,2.241738281E0,8.047415314E0,8.991447453E0
7.947312505E-2,3.445085907E0,2.316432953E0,8.240813141E0,9.227430832E0
8.944712509E-2,3.660637665E0,2.051334229E0,8.030500488E0,9.060749325E0
9.942112491E-2,3.833079071E0,2.008373566E0,7.662715302E0,8.800185529E0
1.093951249E-1,3.901486816E0,2.166594543E0,7.369774475E0,8.615643163E0
1.193691250E-1,3.678151245E0,2.128723297E0,7.247329102E0,8.401430745E0
1.293431250E-1,3.410956879E0,2.027084656E0,7.611821136E0,8.583910533E0
1.393171251E-1,2.806813202E0,1.832639008E0,8.585246887E0,9.216465168E0
1.492911249E-1,3.080893250E0,1.130898285E0,8.402926025E0,9.021086405E0
1.592651249E-1,3.347339172E0,1.233285370E0,8.528514862E0,9.244524763E0
1.692391250E-1,3.480711823E0,2.106719055E0,9.242979126E0,1.009882583E1
1.792131250E-1,4.330794067E0,2.180814972E0,8.330027618E0,9.638521221E0
1.891871251E-1,4.127666473E0,2.366129608E0,8.631201324E0,9.855649960E0
1.991611249E-1,4.688999176E0,3.029100952E0,9.417216797E0,1.094742609E1
2.091351249E-1,4.715494080E0,3.218307495E0,8.538843384E0,1.027157407E1
2.191081250E-1,4.922214203E0,3.416645050E0,8.162226562E0,1.012539375E1
2.290821250E-1,5.712720337E0,3.025209045E0,7.891739044E0,1.020130426E1
2.390561251E-1,5.995332642E0,1.705403595E0,7.545958099E0,9.787435749E0
2.490301251E-1,5.510790253E0,7.810757446E-1,7.442972260E0,9.293907929E0
2.590041249E-1,5.219346313E0,4.400848389E-1,7.215146027E0,8.915917384E0
2.689781250E-1,5.488486633E0,4.583468628E-1,7.004384308E0,8.910385340E0
2.789521250E-1,6.038742371E0,1.209185486E0,6.589447174E0,9.019387619E0
2.889261250E-1,6.484665070E0,1.500330048E0,5.930367737E0,8.914658311E0
2.989001251E-1,6.421346741E0,9.654922485E-2,5.435945892E0,8.413829298E0
3.088741249E-1,5.871989136E0,-2.586022339E0,5.621110840E0,8.530220104E0
3.188481249E-1,5.054089966E0,-4.781506805E0,7.120243378E0,9.955124232E0
3.288221250E-1,5.812263336E0,-4.347708893E0,8.890611877E0,1.147728005E1
3.387961250E-1,7.062014465E0,2.407743073E0,6.580615540E0,9.948556473E0
3.487701251E-1,6.413113861E0,6.800358582E-1,3.130140839E0,7.168560513E0
3.587441249E-1,5.197342072E0,-2.857557678E0,2.505789185E0,6.438709493E0
3.687181249E-1,6.079308014E0,-2.705324249E0,2.087708588E0,6.973900800E0
3.786921250E-1,6.947203217E0,-2.278262329E0,1.809886322E0,7.531918764E0
3.886661250E-1,5.952970734E0,-2.582579498E0,1.093326416E0,6.580496947E0
3.986391251E-1,4.581522675E0,-2.759212189E0,1.152603149E-1,5.349475382E0
4.086131251E-1,4.041296082E0,-2.993475037E0,5.132826233E-1,5.055336375E0
4.185871249E-1,4.386178894E0,-3.632645874E0,4.284091187E-1,5.711235918E0
4.285611250E-1,5.419929199E0,-4.774471436E0,8.229885864E-1,7.269698771E0
4.385351250E-1,5.682632904E0,-5.591322784E0,1.994751892E0,8.217922019E0
4.485091250E-1,5.228926392E0,-6.202501831E0,3.309168549E0,8.761466581E0
4.584831251E-1,4.519701233E0,-6.568939819E0,4.183650055E0,9.004532046E0
4.684571249E-1,4.046385498E0,-7.405400391E0,5.137316895E0,9.879535182E0
4.784311249E-1,4.405339050E0,-8.349187775E0,6.597380676E0,1.151700397E1
4.884051250E-1,5.755830688E0,-8.610095215E0,8.524323578E0,1.341370266E1
4.983791250E-1,6.877747650E0,-9.005872192E0,1.084345093E1,1.568405479E1
5.083531251E-1,7.261399841E0,-8.897796936E0,1.271695496E1,1.713533371E1
5.183271249E-1,7.663314056E0,-8.162076874E0,1.453372696E1,1.834598323E1
5.283011249E-1,8.155789948E0,-7.188800812E0,1.639136398E1,1.966907675E1
5.382751250E-1,8.466244354E0,-6.990313568E0,1.748573822E1,2.064685977E1
5.482491250E-1,1.007210495E1,-6.738986206E0,1.850661530E1,2.212139333E1
5.582231251E-1,8.652906189E0,-7.951464844E0,1.851888977E1,2.193280322E1
5.681971251E-1,6.525380402E0,-7.548053741E0,1.864058670E1,2.114296992E1
5.781701249E-1,7.057823181E0,-6.562054138E0,1.805590256E1,2.046677893E1
5.881441250E-1,7.688461761E0,-6.264772339E0,1.704595276E1,1.972116432E1
5.981181250E-1,8.164172516E0,-4.333338776E0,1.612087646E1,1.858263156E1
6.080921250E-1,7.975265350E0,-4.176464996E0,1.511317200E1,1.759135257E1
6.180661251E-1,9.816885681E0,-1.918410645E0,1.576327011E1,1.866901788E1
6.280401249E-1,1.204859482E1,3.043171692E-1,1.660092819E1,2.051467920E1
6.380141249E-1,1.137589371E1,-7.553292847E-1,1.595352448E1,1.960858034E1
6.479881250E-1,1.094374237E1,4.490661621E-4,1.318592972E1,1.713575910E1
6.579621250E-1,1.152154083E1,1.143472137E0,1.161150375E1,1.639757455E1
6.679361251E-1,1.172586594E1,8.858578491E-1,1.077848602E1,1.595169073E1
6.779101249E-1,1.166015259E1,-2.965333557E-1,9.931696930E0,1.531945477E1
6.878841249E-1,1.112800919E1,-1.216220856E0,9.398805084E0,1.461674788E1
6.978581250E-1,1.050425629E1,-1.371747437E0,9.173523560E0,1.401337310E1
7.078321250E-1,1.034169434E1,-8.794212341E-1,9.040001221E0,1.376392551E1
7.178061251E-1,1.045485901E1,-6.245013428E-1,9.153016205E0,1.390941352E1
7.277801251E-1,1.005249573E1,-9.095086670E-1,8.421188049E0,1.314520006E1
7.377541249E-1,9.402996368E0,-1.383872223E0,7.243736572E0,1.195002772E1
7.477271250E-1,8.816066895E0,-1.651066589E0,6.464008026E0,1.105587880E1
7.577011250E-1,8.371042328E0,-1.727707214E0,5.660928040E0,1.025209384E1
7.676751250E-1,8.703201599E0,-1.651066589E0,5.302872620E0,1.032434971E1
7.776491251E-1,9.804910583E0,-2.102078705E0,5.462740173E0,1.141913029E1
7.876231249E-1,9.862091675E0,-2.116598511E0,5.006189575E0,1.126067385E1
7.975971249E-1,9.899064789E0,-1.929038544E0,4.342469788E0,1.098042427E1
8.075711250E-1,9.530381470E0,-2.465522919E0,3.826792145E0,1.056178547E1
8.175451250E-1,8.865015106E0,-3.498524780E0,3.251388702E0,1.006974165E1
8.275191251E-1,8.658893738E0,-3.910318451E0,3.063978424E0,9.982734842E0
8.374931249E-1,7.722141724E0,-4.183949432E0,2.127376099E0,9.036738057E0
8.474671249E-1,7.431446228E0,-4.559518433E0,2.002835083E0,8.945778320E0
8.574411250E-1,7.262297974E0,-4.713847504E0,3.127296753E0,9.205504610E0
8.674151250E-1,6.713838501E0,-4.995561676E0,4.189787292E0,9.358716869E0
8.773891251E-1,6.254443817E0,-5.778433685E0,5.299130402E0,1.002941406E1
8.873631251E-1,5.788612518E0,-6.487359467E0,6.273603973E0,1.072156586E1
8.973371249E-1,5.231620789E0,-6.661896515E0,6.712341614E0,1.080769407E1
9.073111250E-1,5.193001099E0,-6.540199585E0,6.961423645E0,1.087211526E1
9.172841250E-1,5.274880829E0,-6.421646118E0,6.872059479E0,1.078365004E1
9.272581250E-1,4.130809937E0,-6.476581879E0,6.733148346E0,1.021493956E1
9.372321251E-1,3.209326172E0,-6.487060089E0,6.576723633E0,9.779315764E0
9.472061249E-1,3.587290192E0,-6.607709198E0,7.302414551E0,1.048120842E1
9.571801249E-1,4.218826904E0,-6.590195618E0,9.026379547E0,1.194590752E1
9.671541250E-1,5.459147644E0,-6.267317047E0,1.018901184E1,1.314905009E1
9.771281250E-1,6.308631134E0,-6.572831726E0,1.068567902E1,1.404224625E1
9.871021251E-1,5.735473022E0,-6.786287842E0,1.077758789E1,1.396802614E1
9.970761249E-1,4.815037079E0,-6.044879608E0,1.083087708E1,1.330537672E1
1.007050125E0,4.233496399E0,-5.256918182E0,9.383836212E0,1.155915493E1
1.017024750E0,4.012705536E0,-5.107528839E0,7.964787140E0,1.027747492E1
1.026998750E0,4.095483398E0,-5.187163239E0,7.139253845E0,9.728750803E0
1.036972750E0,4.517156525E0,-4.340673523E0,6.490053864E0,9.020363011E0
1.046946750E0,5.125790863E0,-3.860771484E0,6.498735809E0,9.133063864E0
1.056920750E0,6.252048798E0,-3.791914673E0,7.293133850E0,1.032746496E1
1.066894750E0,7.345824280E0,-3.389850769E0,7.601342926E0,1.110101963E1
1.076868750E0,8.340954895E0,-3.062631226E0,6.900949402E0,1.125052626E1
1.086841750E0,9.329499207E0,-2.834206238E0,4.964576111E0,1.094163134E1
1.096815750E0,9.111253052E0,-3.045117645E0,3.416794739E0,1.019618360E1
1.106789750E0,8.026907959E0,-4.737049255E0,3.312461700E0,9.891576697E0
1.116763750E0,7.333699493E0,-5.852679291E0,3.904330902E0,1.016271632E1
1.126737750E0,6.550827484E0,-6.112987976E0,4.444258118E0,1.000166951E1
1.136711750E0,5.940097504E0,-6.041436768E0,5.117857361E0,9.898291799E0
1.146685750E0,5.698948975E0,-5.837411041E0,5.482349396E0,9.829015311E0
1.156659750E0,4.785249023E0,-7.317533112E0,4.247417450E0,9.720362856E0
1.166633750E0,5.477559357E0,-6.442153473E0,5.693560181E0,1.019419567E1
1.176607750E0,6.011648712E0,-4.222120056E0,8.255332947E0,1.105064433E1
1.186581750E0,5.043013000E0,-6.541846161E0,6.536008301E0,1.053314463E1
1.196555750E0,4.687202911E0,-7.419620819E0,7.141798553E0,1.131485443E1
1.206529750E0,5.181325378E0,-8.350385284E0,9.322613525E0,1.354570744E1
1.216503750E0,5.668262787E0,-8.916508026E0,1.069286407E1,1.503232053E1
1.226477750E0,5.109774170E0,-8.452173615E0,1.137709122E1,1.506609556E1
1.236451750E0,4.489464111E0,-8.251890106E0,1.177825699E1,1.506573317E1
1.246424750E0,4.395010529E0,-7.948920135E0,1.022673340E1,1.367799418E1
1.256398750E0,3.856280823E0,-7.539820862E0,8.359216919E0,1.189942469E1
1.266372750E0,2.530038757E0,-7.246430969E0,8.340056763E0,1.133439035E1
1.276346750E0,2.030228119E0,-7.362888794E0,8.944499817E0,1.176171903E1
1.286320750E0,6.521937561E-1,-7.992479553E0,1.236877899E1,1.474082019E1
1.296294750E0,-6.053411865E-1,-7.867489471E0,1.183813248E1,1.422691847E1
1.306268750E0,-7.946974182E-1,-6.558311920E0,7.197333069E0,9.769575351E0
1.316242750E0,-1.719324646E0,-5.188061371E0,5.817502441E0,7.982192223E0
1.326216750E0,-1.762734375E0,-3.545676727E0,2.890489197E0,4.902446708E0
1.336190750E0,-1.903292084E0,-2.195035400E0,1.154100037E-1,2.907579859E0
1.346164750E0,-1.591640167E0,-1.168021088E0,-1.529219971E0,2.497219534E0
1.356138750E0,-4.034111023E-1,-3.887416077E-1,-1.023421783E0,1.166727347E0
1.366112750E0,5.156776428E-1,-9.235794067E-2,1.590292969E0,1.674361116E0
1.376086750E0,1.453178101E0,-5.707630920E-1,3.724704437E0,4.038678032E0
1.386060750E0,3.007545776E0,-1.025367737E0,4.326004028E0,5.367589910E0
1.396033750E0,4.548591156E0,-1.812131653E0,4.493805084E0,6.645884950E0
1.406007750E0,4.236639862E0,-3.186723175E0,4.803960114E0,7.154184418E0
1.415981750E0,4.356989594E0,-1.682501221E0,7.245083771E0,8.620058441E0
1.425955750E0,5.466332703E0,-1.444645844E0,9.143885193E0,1.075074096E1
1.435929750E0,5.902974701E0,-2.875520325E0,7.806715851E0,1.020090877E1
1.445903750E0,5.130131836E0,-4.012705536E0,5.731730804E0,8.675989649E0
1.455877750E0,4.505780182E0,-4.758155365E0,4.577331390E0,7.993376019E0
1.465851750E0,3.409609680E0,-4.718038788E0,4.019591217E0,7.074068259E0
1.475825750E0,3.646716614E0,-4.501738586E0,3.327131195E0,6.680867784E0
1.485799750E0,7.705077209E0,-5.753136292E0,2.639311523E0,9.971597531E0
1.495773750E0,6.765780487E0,-5.592969360E0,5.162314911E0,1.018364312E1
1.505747750E0,4.476740570E0,-6.252497864E0,7.371421051E0,1.065236049E1
1.515721750E0,4.081113281E0,-7.645950165E0,8.244854736E0,1.196217661E1
1.525695750E0,4.651127930E0,-8.575966187E0,8.398884430E0,1.287328422E1
1.535669750E0,4.483626251E0,-1.006521927E1,1.213960556E1,1.639455905E1
1.545643750E0,3.778592377E0,-1.020712418E1,1.254301666E1,1.660693865E1
1.555616750E0,4.270619202E0,-9.664502563E0,1.088940536E1,1.517300061E1
1.565590750E0,4.221820679E0,-8.171207886E0,7.980803833E0,1.217725905E1
1.575564750E0,4.126918030E0,-6.856342163E0,6.205196228E0,1.012646733E1
1.585538750E0,3.576961670E0,-6.470145264E0,5.009632416E0,8.930501188E0
1.595512750E0,3.078498230E0,-6.380332031E0,4.474944305E0,8.379195350E0
1.605486750E0,2.487676849E0,-6.117628326E0,5.326822815E0,8.484630443E0
1.615460750E0,1.210083618E0,-6.123466187E0,6.608607330E0,9.090370254E0
1.625434750E0,1.680106201E0,-7.119644623E0,7.909552002E0,1.077372309E1
1.635408750E0,2.169288940E0,-7.682474213E0,8.812773743E0,1.189080340E1
1.645382750E0,1.466799774E0,-6.859635315E0,8.950637054E0,1.137189526E1
1.655356750E0,9.668394470E-1,-6.039640503E0,9.487271118E0,1.128806224E1
1.665330750E0,1.071172485E0,-6.027964783E0,9.829908600E0,1.158062490E1
1.675304750E0,1.806742859E0,-5.878725128E0,8.981323242E0,1.088521456E1
1.685278750E0,2.256108398E0,-5.339097290E0,7.836054840E0,9.746781029E0
1.695252750E0,2.544408875E0,-4.948409729E0,7.735613708E0,9.528929363E0
1.705225750E0,3.120710449E0,-5.225633240E0,7.935747528E0,1.000110820E1
1.715199750E0,3.266507263E0,-5.976322174E0,9.273964691E0,1.150621213E1
1.725173750E0,2.318827972E0,-7.005282440E0,1.323457855E1,1.515272301E1
1.735147750E0,3.088377686E0,-7.093299408E0,9.591753845E0,1.232293451E1
1.745121750E0,4.740192719E0,-6.645580444E0,9.608219604E0,1.260757909E1
1.755095750E0,3.567830658E0,-6.302344208E0,7.810907135E0,1.065172420E1
1.765069750E0,2.884202271E0,-6.735094299E0,5.917943573E0,9.418183163E0
1.775043750E0,2.494562531E0,-6.942712555E0,5.294490051E0,9.080513462E0
1.785017750E0,2.345771942E0,-6.693331146E0,5.190755768E0,8.789042797E0
1.794991750E0,2.504891052E0,-6.599326630E0,5.284460907E0,8.817659453E0
1.804965750E0,2.701731720E0,-6.545438690E0,5.623505859E0,9.042452106E0
1.814939750E0,3.125650177E0,-6.577621765E0,6.771768036E0,9.944427557E0
1.824913750E0,3.420686646E0,-6.478827209E0,8.339008942E0,1.110024186E1
1.834887750E0,3.771407318E0,-6.388564911E0,9.360185394E0,1.194363200E1
1.844860750E0,3.700305176E0,-6.279142456E0,1.008003845E1,1.243893338E1
1.854834750E0,3.300486603E0,-6.186485138E0,1.015772690E1,1.234282082E1
1.864808750E0,2.717898102E0,-6.189329224E0,9.873617706E0,1.196591379E1
1.874782750E0,2.519261169E0,-5.914949799E0,9.743837585E0,1.167371744E1
1.884756750E0,2.451152802E0,-5.759423218E0,9.737700348E0,1.157591957E1
1.894730750E0,2.046095123E0,-5.811065826E0,9.136849823E0,1.101984646E1
1.904704750E0,1.712588654E0,-5.615871735E0,7.839797058E0,9.794559365E0
1.914678750E0,1.445244598E0,-5.428461456E0,6.777605896E0,8.803003318E0
1.924652750E0,-2.016307068E-1,-8.314010925E0,1.305585022E1,1.547962072E1
1.934626750E0,-3.833528137E-1,-8.678502960E0,1.329280746E1,1.587961282E1
1.944600750E0,3.495231628E-1,-6.131399689E0,8.036488037E0,1.011441390E1
1.954574750E0,7.256909180E-1,-4.936135254E0,6.717281342E0,8.367432532E0
1.964548750E0,-1.951940918E-1,-5.230423279E0,4.619992676E0,6.981386734E0
1.974522750E0,-9.367520142E-1,-5.626948700E0,2.405797119E0,6.190954352E0
1.984496750E0,-1.311871948E0,-5.483247528E0,1.456022186E0,5.822972786E0
1.994469750E0,-1.788480835E0,-5.357209625E0,4.604425049E-1,5.666600918E0
2.004443750E0,-2.284998322E0,-5.380710754E0,-7.050338745E-2,5.846215552E0
2.014417333E0,-8.457412720E-2,-4.304299164E0,4.683161316E0,6.361300495E0
2.024391333E0,2.262095947E0,-4.056564331E0,7.448510742E0,8.777989777E0
2.034365333E0,1.887125702E0,-4.252357178E0,6.715784454E0,8.169794723E0
2.044339333E0,1.669029236E0,-3.018922119E0,5.691015472E0,6.654863369E0
2.054313333E0,1.998643799E0,-2.318378906E0,4.720733185E0,5.626258045E0
2.064287333E0,1.925446014E0,-3.334465942E0,4.338278503E0,5.800574614E0
2.074261333E0,1.738035736E0,-3.940555573E0,4.520299988E0,6.243545341E0
2.084235333E0,2.335593109E0,-3.751199341E0,6.651567993E0,7.985602572E0
2.094209333E0,2.818189545E0,-4.518054657E0,6.486611023E0,8.392325825E0
2.104183333E0,2.876717834E0,-5.072052612E0,7.322622528E0,9.360663646E0
2.114157333E0,3.485801239E0,-4.164340210E0,9.508077850E0,1.094970703E1
2.124131333E0,3.901636505E0,-3.911066895E0,1.072579559E1,1.206490376E1
2.134105333E0,4.672234039E0,-4.136348419E0,1.116183884E1,1.278772049E1
2.144078333E0,4.943020935E0,-4.173770599E0,1.066113007E1,1.247050565E1
2.154052333E0,4.626728668E0,-4.929698639E0,8.825048218E0,1.111710497E1
2.164026333E0,4.275259552E0,-6.038592682E0,6.926396484E0,1.013495999E1
2.174000333E0,3.544479218E0,-6.568341064E0,5.903124390E0,9.515950547E0
2.183974333E0,2.920127563E0,-6.832092590E0,5.638774109E0,9.327400903E0
2.193948333E0,2.934647369E0,-6.771318970E0,5.558690643E0,9.239153502E0
2.203922333E0,3.331472168E0,-6.245312805E0,5.108426971E0,8.729184668E0
2.213896333E0,3.469634857E0,-5.856720886E0,4.589605865E0,8.209995590E0
2.223870333E0,3.511847076E0,-5.846991119E0,4.130809937E0,7.973955466E0
2.233844333E0,3.167263641E0,-6.016738129E0,4.192930756E0,7.988326796E0
2.243818333E0,4.341871033E0,-8.805738373E0,4.383634186E0,1.075216820E1
2.253792333E0,7.770491180E0,-1.810664703E1,5.147645416E0,2.036490740E1
2.263766333E0,-2.002535706E0,-8.698860626E0,7.111411743E0,1.141282184E1
2.273740333E0,-1.198258209E0,-1.209724365E1,9.988878021E0,1.573393819E1
2.283713333E0,-3.711831207E0,-1.509925095E1,9.247619476E0,1.809097941E1
2.293687333E0,-5.018464050E0,-9.329648895E0,5.863157501E0,1.210801164E1
2.303661333E0,9.335037689E0,2.274370422E0,4.222569122E0,1.049503594E1
2.313635333E0,1.181223633E1,-3.888613586E0,-2.826422424E0,1.275299598E1
2.323609333E0,5.838159485E0,-8.985963593E0,-1.498533783E0,1.082022418E1
2.333583333E0,4.830455017E0,-8.551417236E0,3.408412170E0,1.039602356E1
2.343557333E0,3.589834900E0,-8.518036652E0,6.406078491E0,1.124640852E1
2.353531333E0,4.382586365E0,-8.409362640E0,6.873256989E0,1.171179341E1
2.363505333E0,5.538033600E0,-8.888516235E0,6.083199921E0,1.211118732E1
2.373479333E0,5.453459473E0,-8.868607635E0,4.626279602E0,1.139275579E1
2.383453333E0,4.233197021E0,-8.932973785E0,2.830314331E0,1.028244411E1
2.393427333E0,2.842588806E0,-9.607171783E0,1.992656250E0,1.021512309E1
2.403401333E0,2.788102112E0,-9.563762054E0,1.940115509E0,1.014904460E1
2.413375333E0,4.373006287E0,-8.905730438E0,2.451901245E0,1.021993338E1
2.423348333E0,5.381309509E0,-7.945477295E0,4.320016479E0,1.052386069E1
2.433322333E0,5.091212769E0,-6.889423370E0,5.146747284E0,9.993678474E0
2.443296333E0,4.406985626E0,-5.641468506E0,2.752775574E0,7.669775914E0
2.453270333E0,2.566712494E0,-4.555177460E0,2.027833099E0,5.608008719E0
2.463244333E0,1.487157440E0,-5.324128418E0,2.631677399E0,6.122393861E0
2.473218333E0,1.063538361E0,-7.508386230E0,3.792962494E0,8.479005962E0
2.483192333E0,2.174977112E-1,-8.841364288E0,2.667602692E0,9.237593402E0
2.493166333E0,5.724096680E-1,-7.001540222E0,1.826052704E0,7.258352898E0
2.503140333E0,1.973795471E0,-3.207829285E0,1.003064117E0,3.897714062E0
2.513114333E0,1.871109009E0,-2.613115997E0,-6.741979980E-1,3.283895108E0
2.523088333E0,1.487157440E0,-2.079026642E0,-1.194066925E0,2.821309067E0
2.533062333E0,9.372010803E-1,-1.731599121E0,-1.393901367E0,2.412414227E0
2.543036333E0,5.903723145E-1,-1.707499237E0,-1.302291870E0,2.227118593E0
2.553010333E0,3.107537842E-1,-1.654210052E0,-1.476080475E0,2.238703281E0
2.562983333E0,3.821553040E-1,-1.500779114E0,-1.299148407E0,2.021427023E0
2.572957333E0,-9.231303406E-1,-4.214336243E0,3.833079071E0,5.771073969E0
2.582931333E0,-1.005459137E0,-3.716770935E0,2.136507111E0,4.403407419E0
2.592905333E0,2.995271301E-1,-1.662891998E0,-1.529968414E0,2.279414321E0
2.602879333E0,5.873785400E-1,-9.858499146E-1,-1.932182007E0,2.247274107E0
2.612853333E0,-1.337618408E0,-9.064250793E0,7.508386230E-1,9.193129178E0
2.622827333E0,-6.030210114E0,-2.243729141E1,-2.039808197E0,2.332287069E1
2.632801333E0,-7.840545502E0,-3.266372543E1,-1.135838013E0,3.361076079E1
2.642775333E0,-5.159620514E0,-4.228736298E1,5.760321350E0,4.298865029E1
2.652749333E0,-1.200952606E0,-4.135450287E1,1.016386414E1,4.260212822E1
2.662723333E0,5.165757751E-1,-3.131293442E1,7.041058044E0,3.209895965E1
2.672697333E0,1.171912994E0,-1.963990860E1,4.109853516E0,2.009950959E1
2.682671333E0,2.045646057E0,-1.194366302E1,2.554288330E0,1.238386624E1
2.692644333E0,2.058818665E0,-7.845185852E0,-6.207591248E-1,8.134556979E0
2.702618333E0,1.425785065E0,-5.468727722E0,-1.515897675E0,5.851306838E0
2.712592333E0,5.438191223E-1,-4.143383789E0,-2.120041351E0,4.685930408E0
2.722566333E0,-5.044509888E-2,-3.476819916E0,-2.897823944E0,4.526389847E0
2.732540333E0,-5.153782654E-1,-3.520978088E0,-3.707190857E0,5.138692976E0
2.742514333E0,-1.067729645E0,-4.472998352E0,-4.075425110E0,6.144660339E0
2.752488333E0,-1.282982025E0,-6.050717468E0,-4.473447418E0,7.633410546E0
2.762462333E0,-1.328487396E0,-8.169860687E0,-4.482428741E0,9.412952238E0
2.772436333E0,-1.112935638E0,-1.046159500E1,-4.066443787E0,1.127916490E1
2.782410333E0,-4.794529724E-1,-1.264061371E1,-2.530487823E0,1.290032398E1
2.792384333E0,5.902226257E-1,-1.380070129E1,-1.468446350E-1,1.381409723E1
2.802358333E0,1.584904175E0,-1.230321533E1,1.029708710E0,1.244754308E1
2.812332333E0,1.870210876E0,-1.132215546E1,1.561103668E0,1.158127530E1
2.822306333E0,1.613045654E0,-1.106499023E1,1.987566833E0,1.135721564E1
2.832279333E0,1.151705017E0,-1.101424576E1,2.262395325E0,1.130302909E1
2.842253333E0,5.568420410E-1,-1.117501144E1,2.096689911E0,1.138363134E1
2.852227333E0,-3.757186890E-2,-1.135912857E1,1.595681763E0,1.147071985E1
2.862201333E0,-3.700305176E-1,-1.142559036E1,1.281784515E0,1.150321734E1
2.872175333E0,-2.739303589E-1,-1.109552673E1,1.668729858E0,1.122365407E1
2.882149333E0,-2.785707092E-1,-1.147483795E1,1.171912994E0,1.153788922E1
2.892123333E0,-2.433938599E-1,-1.205203766E1,4.270619202E-1,1.206205763E1
2.902097333E0,1.272354126E-1,-1.146540756E1,1.163680115E0,1.152501240E1
2.912071333E0,4.369413757E-1,-1.071786209E1,2.332449646E0,1.097742260E1
2.922045333E0,7.322772217E-1,-9.953551483E0,3.176544342E0,1.047376967E1
2.932019333E0,1.223555603E0,-8.648116150E0,3.634591827E0,9.460299097E0
2.941993333E0,1.374142456E0,-8.064030762E0,3.452121277E0,8.878851329E0
2.951967333E0,1.185534668E0,-8.227041779E0,2.523003387E0,8.686498430E0
2.961940333E0,1.128203888E0,-7.981103210E0,1.501976624E0,8.199194244E0
2.971914333E0,7.649093628E-1,-8.514593811E0,6.896159363E-1,8.576652275E0
2.981888333E0,6.520440674E-1,-8.898695068E0,3.376977539E-1,8.928940316E0
2.991862333E0,8.644523621E-1,-8.618178406E0,8.940907288E-1,8.707449406E0
3.001836333E0,8.907975769E-1,-8.555608521E0,1.421444092E0,8.718512533E0
3.011810208E0,7.943980408E-1,-8.913813629E0,1.407073975E0,9.059083774E0
3.021784208E0,7.529342651E-1,-9.139993286E0,1.072819061E0,9.233489482E0
3.031758208E0,7.008425903E-1,-9.170380096E0,7.464976501E-1,9.227367457E0
3.041732208E0,4.607418823E-1,-9.430239716E0,5.144801331E-1,9.455495438E0
3.051706208E0,2.080673218E-2,-9.723330231E0,1.766326904E-1,9.724956699E0
3.061680208E0,-5.197192383E-1,-9.824070740E0,-2.020797729E-2,9.837829148E0
3.071654208E0,-9.623487854E-1,-9.562564545E0,-9.056167603E-2,9.611293215E0
3.081628208E0,-1.575922852E0,-9.627080383E0,-9.610015869E-1,9.802435085E0
3.091601208E0,-2.068847809E0,-9.822274475E0,-1.062939606E0,1.009391142E1
3.101575208E0,-2.185155945E0,-1.052072205E1,3.293151855E-1,1.075029987E1
3.111549208E0,-2.170187073E0,-1.089793762E1,1.273102570E0,1.118461204E1
3.121523208E0,-2.100132751E0,-1.088281906E1,1.687141571E0,1.121127803E1
3.131497208E0,-1.638043671E0,-1.048599426E1,1.654958496E0,1.074142218E1
3.141471208E0,-1.165326691E0,-9.869426422E0,1.085841980E0,9.997130438E0
3.151445208E0,-9.764195251E-1,-9.304650879E0,3.962260437E-1,9.364129332E0
3.161419208E0,-8.361611938E-1,-8.853489075E0,-3.936813354E-2,8.892973866E0
3.171393208E0,-5.626799011E-1,-8.608149261E0,-1.883084106E-1,8.628574763E0
3.181367208E0,-2.050735474E-1,-8.491392059E0,-1.260379028E-1,8.494803106E0
3.191341208E0,1.047821045E-2,-8.405021667E0,5.239105225E-2,8.405191482E0
3.201315208E0,5.643264771E-2,-8.403225403E0,2.694396973E-1,8.407733319E0
3.211289208E0,-2.499801636E-2,-8.336613922E0,4.101470947E-1,8.346734525E0
3.221263208E0,-2.329156494E-1,-8.221952362E0,3.811074829E-1,8.234075131E0
3.231236208E0,-4.400848389E-1,-7.928562469E0,4.290078735E-1,7.952347154E0
3.241210208E0,-5.804928589E-1,-7.405250702E0,5.523513794E-1,7.448476486E0
3.251184208E0,-5.700146484E-1,-6.790030060E0,6.077362061E-1,6.840962521E0
3.261158208E0,-3.784130859E-1,-5.992338867E0,5.697152710E-1,6.031243409E0
3.271132208E0,1.375639343E-1,-4.964875488E0,4.948709106E-1,4.991373525E0
3.281106208E0,9.223818970E-1,-3.808530121E0,8.619076538E-1,4.012302936E0
3.291080208E0,1.776056671E0,-3.026705933E0,1.329385529E0,3.752677975E0
3.301054208E0,2.448907471E0,-2.404449921E0,1.679806824E0,3.821031037E0
3.311028208E0,2.697241058E0,-1.948797455E0,2.430645447E0,4.120795813E0
3.321002208E0,2.077230377E0,-2.218536530E0,3.254681854E0,4.453060110E0
3.330976208E0,1.446591797E0,-3.211122437E0,3.422183533E0,4.910730624E0
3.340950208E0,1.330133972E0,-5.190306702E0,3.043620758E0,6.162156064E0
3.350923208E0,1.007405090E0,-7.701185303E0,2.462529144E0,8.147832219E0
3.360897208E0,8.744815063E-1,-9.855355682E0,2.056423645E0,1.010552481E1
3.370871208E0,1.172062683E0,-1.168440216E1,2.057321777E0,1.192189405E1
3.380845208E0,1.490600281E0,-1.292397446E1,2.337838440E0,1.321803667E1
3.390819208E0,1.146465912E0,-1.327619202E1,2.744542694E0,1.360529945E1
3.400793208E0,7.915539551E-1,-1.232042953E1,2.523452454E0,1.260108542E1
3.410767208E0,5.682183838E-1,-1.089808731E1,1.210532684E0,1.097982552E1
3.420741208E0,1.329235840E-1,-1.008213409E1,-1.568737793E-1,1.008423056E1
3.430715208E0,-5.164260864E-1,-9.971514130E0,-7.214996338E-1,1.001091163E1
3.440689208E0,-1.063388672E0,-1.109358078E1,-7.514373779E-2,1.114468378E1
3.450663208E0,-1.001417542E0,-1.331526077E1,1.329086151E0,1.341884781E1
3.460637208E0,-3.059637451E-1,-1.481484238E1,2.599194946E0,1.504423421E1
3.470611208E0,-8.412506104E-2,-1.613419876E1,3.424877930E0,1.649391511E1
3.480585208E0,-3.469784546E-1,-1.797761536E1,3.974235535E0,1.841492862E1
3.490558208E0,-8.683442688E-1,-2.039014847E1,4.041745148E0,2.080499652E1
3.500532208E0,-1.476828918E0,-2.313154770E1,3.284769287E0,2.341023776E1
3.510506208E0,-1.937421112E0,-2.561817673E1,2.267185364E0,2.579117502E1
3.520480208E0,-2.235900421E0,-2.761128204E1,1.854643250E0,2.776367858E1
3.530454208E0,-2.095492401E0,-2.900428528E1,2.073488159E0,2.915371342E1
3.540428208E0,-1.109343109E0,-2.938659027E1,2.824626160E0,2.954286450E1
3.550402208E0,4.495152283E-1,-2.839639938E1,3.519930267E0,2.861725827E1
3.560376208E0,1.866019592E0,-2.593641495E1,3.713178406E0,2.626722946E1
3.570350208E0,3.101849670E0,-2.375679749E1,4.149221649E0,2.431507636E1
3.580324208E0,2.602937164E0,-2.332299957E1,-2.195783844E0,2.357030033E1
3.590298208E0,1.531914368E0,-2.385798706E1,-8.995843048E0,2.554359999E1
3.600272208E0,9.388476562E-1,-2.361609009E1,-9.562863922E0,2.549606857E1
3.610245208E0,-9.535171509E-2,-2.230182312E1,-6.234984283E0,2.315718971E1
3.620219208E0,-1.146765289E0,-1.944172073E1,-2.768043823E0,1.967123896E1
3.630193208E0,-1.951342163E0,-1.597358276E1,-6.493496704E-1,1.610542572E1
3.640167208E0,-2.858156433E0,-1.322275314E1,9.595046997E-2,1.352846870E1
3.650141208E0,-2.962788849E0,-1.033196457E1,8.858578491E-1,1.078482052E1
3.660115208E0,-1.618733826E0,-6.770570526E0,2.423161011E0,7.371067340E0
3.670089208E0,-1.935774536E0,-4.621190186E0,3.891307983E0,6.343886790E0
3.680063208E0,-2.565215607E0,-2.137554932E0,3.286415863E0,4.685082862E0
3.690037208E0,-1.199006653E0,7.677534485E-1,3.005150757E0,3.325356129E0
3.700011208E0,-4.058061218E-1,2.797532501E0,3.779490509E0,4.719683804E0
3.709985208E0,3.520678711E-1,4.971761169E0,3.701502686E0,6.208339798E0
3.719959208E0,1.215622101E0,7.181765442E0,3.656596069E0,8.150226179E0
3.729933208E0,1.830393677E0,8.979077911E0,3.473077698E0,9.799818868E0
3.739906208E0,2.004930725E0,9.605824585E0,2.754122772E0,1.019199713E1
3.749880208E0,1.879341888E0,8.902586975E0,2.606978760E0,9.464899315E0
3.759854208E0,1.676214294E0,6.974895630E0,3.242257690E0,7.872172403E0
3.769828208E0,1.496438141E0,4.148772583E0,3.532953186E0,5.650964455E0
3.779802208E0,1.424587555E0,1.224304047E0,2.684068451E0,3.276063728E0
3.789776208E0,1.533411255E0,-9.907896423E-1,1.904788971E0,2.638415285E0
3.799750208E0,1.630858612E0,-2.510279846E0,1.698667603E0,3.441900106E0
3.809724208E0,1.661095734E0,-2.866089935E0,1.841620331E0,3.790155141E0
3.819698208E0,1.409169617E0,-2.489922180E0,1.842668152E0,3.403071758E0
3.829672208E0,1.267713776E0,-1.719174957E0,1.316512299E0,2.509156309E0
3.839646208E0,1.283431091E0,-9.939331055E-1,5.388793945E-1,1.710406205E0
3.849620208E0,1.360969849E0,-5.806425476E-1,-2.627037048E-1,1.502796704E0
3.859593208E0,1.553619232E0,-2.911445618E-1,-8.777746582E-1,1.808033801E0
3.869567208E0,1.815125427E0,7.334747314E-3,-1.299447784E0,2.232330320E0
3.879541208E0,1.984273682E0,3.152444458E-1,-1.584305420E0,2.558660737E0
3.889515208E0,1.945204926E0,4.218228149E-1,-2.048789520E0,2.856448002E0
3.899489208E0,1.670077057E0,3.004252625E-1,-2.619103546E0,3.120755694E0
3.909463208E0,1.257684631E0,-4.131408691E-2,-2.746338959E0,3.020903038E0
3.919437208E0,1.034947815E0,-2.815644836E-1,-2.265389099E0,2.506468294E0
3.929411208E0,8.907975769E-1,-4.411326599E-1,-1.721719666E0,1.988073679E0
3.939385208E0,7.441026306E-1,-6.245013428E-1,-1.332678680E0,1.649158306E0
3.949359208E0,6.933581543E-1,-7.265890503E-1,-1.197958832E0,1.563260228E0
3.959333208E0,6.286926270E-1,-1.363664246E0,-8.469387817E-1,1.723989528E0
3.969307208E0,4.343966675E-1,-2.664459229E0,2.312690735E-1,2.709525573E0
3.979281208E0,3.067121887E-1,-4.396208038E0,1.511407013E0,4.658869889E0
3.989254208E0,9.244775391E-1,-5.865851898E0,2.416125641E0,6.410970311E0
3.999228208E0,1.759141846E0,-7.453001404E0,2.470163269E0,8.046335597E0
4.009202208E0,1.824256439E0,-1.076007431E1,1.932631073E0,1.108341886E1
4.019176625E0,7.300318909E-1,-1.602806946E1,1.796264648E-1,1.604569172E1
4.029150625E0,-7.926017761E-1,-2.317151459E1,-1.650168457E0,2.324371661E1
4.039124625E0,-3.419489136E0,-3.455908401E1,-5.697152710E-1,3.473251746E1
4.049098625E0,-8.173004150E0,-4.738935333E1,2.204465790E0,4.813946900E1
4.059072625E0,-9.885443115E0,-5.038731903E1,4.425996094E0,5.153827069E1
4.069046625E0,-6.388564911E0,-4.274062042E1,1.701212311E0,4.324891350E1
4.079020625E0,-2.061213684E0,-3.225417709E1,1.965412903E-1,3.232056884E1
4.088994625E0,1.263372803E0,-2.382774994E1,1.097218323E0,2.388643268E1
4.098968625E0,3.274141388E0,-1.847263596E1,1.924398193E0,1.885899227E1
4.108942625E0,4.421206055E0,-1.669343582E1,7.177574158E-1,1.728389534E1
4.118915625E0,4.910239105E0,-1.793899567E1,2.110610962E-1,1.860006883E1
4.128889625E0,4.069138184E0,-1.913321228E1,2.769241333E-2,1.956114681E1
4.138863625E0,1.985620880E0,-1.795052170E1,-3.105591888E0,1.832508173E1
4.148837625E0,-7.593708801E-1,-1.686183563E1,-7.828420715E0,1.860597527E1
4.158811625E0,-3.845652924E0,-1.616847748E1,-1.199081497E1,2.049361740E1
4.168785625E0,-6.287075958E0,-1.565085388E1,-1.306752594E1,2.133627862E1
4.178759625E0,-6.370153198E0,-1.440484497E1,-1.060065582E1,1.898558175E1
4.188733625E0,-4.663701782E0,-1.252655090E1,-6.005661163E0,1.465375576E1
4.198707625E0,-2.955454102E0,-1.100795883E1,-1.450034637E0,1.148966784E1
4.208681625E0,-1.330433350E0,-8.853339386E0,6.081852722E-1,8.973380662E0
4.218655625E0,-2.442919922E-1,-6.562652893E0,1.403481445E0,6.715493410E0
4.228629625E0,-4.939727783E-3,-3.551514587E0,2.641856232E0,4.426362459E0
4.238602625E0,-5.251080322E-1,-1.988315277E0,2.337539063E0,3.113394443E0
4.248576625E0,-5.954617310E-1,-3.402125244E0,3.526366882E0,4.936020081E0
4.258550625E0,5.742059326E-1,-1.497186584E0,4.403542786E0,4.686413254E0
4.268524625E0,1.405876465E0,1.646575928E-2,4.550986176E0,4.763216867E0
4.278498625E0,1.899549866E0,1.451381836E0,5.113067322E0,5.644311859E0
4.288472625E0,1.969903564E0,1.854792938E0,4.889582062E0,5.588272509E0
4.298446625E0,1.669478302E0,1.695075073E0,3.727997589E0,4.422488364E0
4.308420625E0,1.322499847E0,1.366508331E0,2.309846649E0,2.991946258E0
4.318394625E0,1.074615326E0,9.535171509E-1,1.073866882E0,1.793650784E0
4.328368625E0,7.999365234E-1,2.493814087E-1,2.478845215E-1,8.738056217E-1
4.338342625E0,3.975732422E-1,-9.478289795E-1,1.281335449E-1,1.035790743E0
4.348316625E0,3.769161987E-1,-1.794019318E0,3.544628906E-1,1.867140882E0
4.358289625E0,5.369334412E-1,-3.021167450E0,4.815486145E-1,3.106064930E0
4.368263625E0,4.989125061E-1,-6.048621826E0,7.954458618E-1,6.121068028E0
4.378237625E0,-4.939727783E-2,-1.104612946E1,9.613009644E-1,1.108798970E1
4.388211625E0,-6.801855469E-1,-1.764560577E1,1.219064941E0,1.770073939E1
4.398185625E0,-1.205443268E0,-2.501552994E1,1.300196228E0,2.507828427E1
4.408159625E0,-1.811832275E0,-3.023951660E1,-8.773255920E-1,3.030644817E1
4.418133625E0,-1.842817841E0,-2.974090347E1,-4.816533966E0,3.018470335E1
4.428107625E0,1.630110168E-1,-2.124307480E1,-1.179247742E0,2.127640535E1
4.438081625E0,1.481918335E-1,-1.368828506E1,-3.884272614E0,1.422950043E1
4.448055625E0,-9.391470337E-1,-9.585616608E0,-7.446115723E0,1.217418097E1
4.458029625E0,-1.706152039E0,-7.303612061E0,-7.860753479E0,1.086485845E1
4.468003625E0,-1.793570251E0,-6.752907257E0,-5.739813995E0,9.042351208E0
4.477977625E0,-1.695524139E0,-5.977968750E0,-2.482437744E0,6.691293570E0
4.487950625E0,-1.348695374E0,-4.340523834E0,-4.132905579E-1,4.563982411E0
4.497924625E0,3.984713745E-1,-3.808530121E0,3.657045135E0,5.295059985E0
4.507898625E0,1.554816742E0,-3.706292725E0,5.710025940E0,6.982725621E0
4.517872625E0,1.970951385E0,-3.897744598E0,5.479654999E0,7.007401888E0
4.527846625E0,2.294728088E0,-3.688030701E0,4.912783813E0,6.557651428E0
4.537820625E0,2.955005035E0,-2.884351959E0,4.073179779E0,5.800201246E0
4.547794625E0,3.532354431E0,-1.338965607E0,3.102747803E0,4.888496768E0
4.557768625E0,3.837869110E0,-2.594105530E-1,2.786006470E0,4.749564737E0
4.567742625E0,4.189188538E0,-6.872209167E-1,1.912123718E0,4.655941398E0
4.577716625E0,4.054169312E0,-1.755699005E0,4.466711426E-1,4.440527324E0
4.587690625E0,3.575464783E0,-2.614014130E0,-8.027806091E-1,4.501274818E0
4.597664625E0,3.015628967E0,-3.418441315E0,-1.778002625E0,4.892959475E0
4.607637625E0,2.658621368E0,-4.222269745E0,-2.266436920E0,5.480197596E0
4.617611625E0,2.620151367E0,-5.035678253E0,-1.934876404E0,5.997248982E0
4.627585625E0,2.463876343E0,-5.900879059E0,-7.288343811E-1,6.436012730E0
4.637559625E0,1.814077606E0,-6.900500336E0,3.391946411E-1,7.143027051E0
4.647533625E0,1.005309448E0,-8.273744659E0,8.839118958E-1,8.381336291E0
4.657507625E0,1.719923401E-1,-9.906848602E0,1.250649261E0,9.986959205E0
4.667481625E0,-7.738906860E-1,-1.166599045E1,1.661844177E0,1.180914756E1
4.677455625E0,-1.603764954E0,-1.367705841E1,2.225272522E0,1.394940237E1
4.687429625E0,-1.958227844E0,-1.600771179E1,2.988235931E0,1.640155624E1
4.697403625E0,-1.899998932E0,-1.836321350E1,3.849395142E0,1.885829921E1
4.707377625E0,-1.691781921E0,-2.057845688E1,4.707111511E0,2.117762764E1
4.717351625E0,-1.983076172E0,-2.336940308E1,5.488037567E0,2.408692898E1
4.727324625E0,-2.589016113E0,-2.670910812E1,5.759123840E0,2.744534512E1
4.737298625E0,-2.760709076E0,-2.952355545E1,5.289700012E0,3.012047090E1
4.747272625E0,-2.139800262E0,-3.108630569E1,4.590054932E0,3.149612280E1
4.757246625E0,-1.043480072E0,-3.174313980E1,4.204905853E0,3.203743136E1
4.767220625E0,4.128414917E-1,-3.126967438E1,3.792363739E0,3.150150784E1
4.777194625E0,2.051334229E0,-2.979658768E1,3.210074615E0,3.003912762E1
4.787168625E0,3.553610229E0,-2.832454880E1,2.775528259E0,2.868120931E1
4.797142625E0,4.945865021E0,-2.752805511E1,2.461930389E0,2.807697456E1
4.807116625E0,5.775739288E0,-2.719589584E1,2.025438080E0,2.787612445E1
4.817090625E0,5.989345093E0,-2.644385971E1,1.564097443E0,2.715872552E1
4.827064625E0,5.467829590E0,-2.517240372E1,1.288819885E0,2.579162899E1
4.837038625E0,4.119732971E0,-2.292886917E1,-4.923262024E-1,2.330123658E1
4.847012625E0,3.109184418E0,-1.981399658E1,-3.506308594E0,2.036064066E1
4.856985625E0,5.209167480E-2,-1.685659653E1,-5.823939056E0,1.783440008E1
4.866959625E0,-8.138725433E0,-1.220651642E1,-4.643194427E0,1.538821462E1
4.876933625E0,3.279679871E-1,-1.044453049E1,5.058430939E0,1.160962978E1
4.886907625E0,-4.195774841E-1,-7.130422211E0,3.825894012E0,8.102865614E0
4.896881625E0,7.331753540E-1,-3.486849060E0,2.944377136E0,4.622230975E0
4.906855625E0,1.267863464E0,-2.197131042E0,2.357297974E0,3.462905762E0
4.916829625E0,2.197879486E0,-1.400038605E0,2.806663513E-1,2.620983772E0
4.926803625E0,2.648741913E0,-8.637039185E-1,-8.804690552E-1,2.921822023E0
4.936777625E0,2.116149445E0,-4.460723877E-2,-1.210981750E0,2.438555941E0
4.946751625E0,2.024090881E0,1.218466187E0,-1.156495056E0,2.630415283E0
4.956725625E0,1.782044220E0,2.449356537E0,-1.045126648E0,3.204265713E0
4.966699625E0,1.099463654E0,3.049308929E0,-7.250921631E-1,3.321575517E0
4.976672625E0,-4.165837097E-1,3.179538116E0,-1.082249451E-1,3.208538181E0
4.986646625E0,-1.026116180E0,3.080743561E0,4.040098572E-1,3.272173478E0
4.996620625E0,5.081932068E-1,2.809956665E0,6.162684631E-1,2.921284583E0
5.006594625E0,1.335073700E0,2.535726929E0,9.731263733E-1,3.026434830E0
5.016568208E0,1.733844452E0,2.287393341E0,1.504221954E0,3.240535229E0
5.026542208E0,2.164049835E0,2.044897614E0,1.920506287E0,3.543030107E0
5.036516208E0,2.407443695E0,1.871109009E0,2.285447388E0,3.810525401E0
5.046490208E0,2.086062012E0,1.746867371E0,2.662363586E0,3.806754549E0
5.056464208E0,3.215313721E-1,1.531614990E0,3.239413605E0,3.597641923E0
5.066438208E0,7.319778442E-2,1.578766937E0,3.606899414E0,3.937967285E0
5.076412208E0,1.637145538E0,1.735790405E0,3.317700806E0,4.086606475E0
5.086386208E0,1.983375549E0,1.653611298E0,2.647544403E0,3.698337499E0
5.096359208E0,1.763782196E0,1.326541443E0,1.751208344E0,2.817333934E0
5.106333208E0,1.302740936E0,8.542735291E-1,1.380579071E0,2.081565704E0
5.116307208E0,9.391470337E-1,5.288502502E-1,1.411564636E0,1.776005197E0
5.126281208E0,7.029382324E-1,2.284249878E-1,1.353186035E0,1.541886046E0
5.136255208E0,3.791615295E-1,1.167572021E-1,1.159189453E0,1.225200350E0
5.146229208E0,7.065307617E-2,-7.140151978E-2,2.605182495E0,2.607118307E0
5.156203208E0,1.026864624E-1,-3.607498169E-2,4.105362854E0,4.106805337E0
5.166177208E0,9.539662170E-1,3.995191956E-1,1.140478363E0,1.539596709E0
5.176151208E0,1.563199310E0,7.629634094E-1,-1.227896576E0,2.129186523E0
5.186125208E0,1.578467560E0,1.271455994E0,-1.663939819E0,2.622376003E0
5.196099208E0,1.038240967E0,1.712438965E0,-1.488354950E0,2.495113619E0
5.206073208E0,2.165995789E-1,1.509011993E0,-1.088835754E0,1.873391543E0
5.216047208E0,-4.122427368E-1,4.592449951E-1,-7.415579224E-1,9.647581002E-1
5.226020208E0,-6.372248840E-1,-5.902226257E-1,-3.950285339E-1,9.541833385E-1
5.235994208E0,-5.791456604E-1,-1.207239532E0,3.427871704E-2,1.339407337E0
5.245968208E0,-2.912942505E-1,-1.346899109E0,7.358697510E-1,1.562208002E0
5.255942208E0,1.704954529E-1,-1.071621552E0,1.280437317E0,1.678380521E0
5.265916208E0,1.206790466E0,-1.517394562E0,1.952539673E0,2.751588752E0
5.275890208E0,1.681303711E0,-5.335654449E0,2.514471130E0,6.133396746E0
5.285864208E0,-1.566193085E0,-2.211291595E1,4.610562286E0,2.264268750E1
5.295838208E0,-7.836952972E0,-5.504712891E1,7.598798218E0,5.611903391E1
5.305812208E0,-6.193969574E0,-7.202542236E1,5.284161530E0,7.248412991E1
5.315786208E0,2.551743622E0,-6.396423569E1,3.619772644E0,6.411737359E1
5.325760208E0,3.599564667E0,-5.192611908E1,5.813311157E0,5.237435723E1
5.335733208E0,3.161725159E0,-3.311473755E1,5.497467957E0,3.371653160E1
5.345707208E0,3.831133118E0,-2.128798141E1,4.327500916E0,2.205862638E1
5.355681208E0,3.735182648E0,-1.442460388E1,3.134032745E0,1.522638985E1
5.365655208E0,3.381767578E0,-1.163979492E1,1.259181519E0,1.218633316E1
5.375629208E0,3.122656403E0,-1.242880417E1,3.779640198E-1,1.282064791E1
5.385603208E0,3.321592712E0,-1.533216660E1,-6.536906433E-1,1.570145287E1
5.395577208E0,3.391796722E0,-1.844688950E1,-2.304008789E0,1.889710225E1
5.405551208E0,2.030078430E0,-1.873114838E1,-3.735931091E0,1.920766303E1
5.415525208E0,-5.435197449E-1,-1.668655014E1,-4.354744263E0,1.725398988E1
5.425499208E0,-3.816313934E0,-1.415651138E1,-3.467838593E0,1.506641866E1
5.435473208E0,-4.632416840E0,-1.198018707E1,-2.995271301E0,1.318923115E1
5.445447208E0,-3.588487701E0,-9.879156189E0,-3.516038361E0,1.108320787E1
5.455421208E0,-2.237247620E0,-7.737859039E0,-3.256029053E0,8.688006942E0
5.465394208E0,-6.036946106E-1,-6.371350708E0,-1.531315613E0,6.580538316E0
5.475368208E0,2.242337036E-1,-4.993166656E0,-3.682342529E-2,4.998334720E0
5.485342208E0,8.637039185E-1,-4.093836823E0,7.357200623E-1,4.248148820E0
5.495316208E0,1.157393188E0,-4.513563995E0,1.265169067E0,4.828299049E0
5.505290208E0,7.708969116E-1,-5.152585144E0,1.057101746E0,5.316096295E0
5.515264208E0,1.402583313E-1,-4.630919952E0,1.261726227E0,4.801775201E0
5.525238208E0,3.001258850E-1,-3.201093292E0,9.343569946E-1,3.348148265E0
5.535212208E0,6.906637573E-1,-1.766027527E0,9.086105347E-2,1.898453419E0
5.545186208E0,8.406518555E-1,-6.508465576E-1,-2.308200073E-1,1.087922175E0
5.555160208E0,6.435118103E-1,2.383044434E-1,-2.568658447E-1,7.327185817E-1
5.565134208E0,3.378474426E-1,5.560935974E-1,9.595046997E-2,6.577138255E-1
5.575107208E0,1.766326904E-2,3.739224243E-1,7.694000244E-1,8.556321453E-1
5.585081208E0,-7.210505676E-1,-3.917353821E-1,1.821262665E0,1.997590605E0
5.595055208E0,-7.897576904E-1,-1.669777679E0,2.460583191E0,3.076742490E0
5.605029208E0,9.749226379E-1,-2.739902344E0,2.565964050E0,3.878364412E0
5.615003208E0,2.025887146E0,-4.366569672E0,2.880609741E0,5.609729219E0
5.624977208E0,2.516716461E0,-6.955585785E0,3.341651001E0,8.116690629E0
5.634951208E0,3.134332123E0,-1.053703812E1,3.558250580E0,1.155484129E1
5.644925208E0,3.794908447E0,-1.499851044E1,3.184627533E0,1.579552145E1
5.654899208E0,4.442910919E0,-2.040047699E1,2.040406952E0,2.097813575E1
5.664873208E0,4.966072998E0,-2.633997574E1,1.782792664E0,2.686325655E1
5.674847208E0,5.020110626E0,-2.833367981E1,2.824626160E0,2.891327438E1
5.684821208E0,3.717669067E0,-2.226709534E1,9.366023254E-1,2.259472996E1
5.694795208E0,1.949246521E0,-1.572494980E1,-2.207908630E-1,1.584684059E1
5.704768208E0,7.385641479E-1,-1.210532684E1,-7.429051208E-1,1.215056883E1
5.714742208E0,2.201921082E-1,-9.031319275E0,-1.558409271E0,9.167434312E0
5.724716208E0,-8.023315430E-2,-6.368057556E0,-2.525099030E0,6.850891877E0
5.734690208E0,-2.269281006E-1,-4.222120056E0,-3.434008942E0,5.447036951E0
5.744664208E0,-2.951861572E-1,-2.817590790E0,-3.759282532E0,4.707245254E0
5.754638208E0,-4.336482239E-1,-2.319726105E0,-3.656296692E0,4.351745108E0
5.764612208E0,-7.134164429E-1,-2.280208282E0,-3.044069824E0,3.869712383E0
5.774586208E0,-9.596543884E-1,-2.919977875E0,-2.104773102E0,3.725221758E0
5.784560208E0,-9.786648560E-1,-3.921545105E0,-8.167016602E-1,4.123506095E0
5.794534208E0,-7.538323975E-1,-4.359983368E0,7.075785828E-1,4.480891173E0
5.804508208E0,-2.860551453E-1,-4.466412048E0,1.867965546E0,4.849738077E0
5.814481208E0,3.194357300E-1,-4.655319214E0,2.408192139E0,5.251040425E0
5.824455208E0,1.029409332E0,-4.462819519E0,2.797233124E0,5.366652102E0
5.834429208E0,1.764380951E0,-4.271068268E0,2.848726044E0,5.428655852E0
5.844403208E0,2.847528534E0,-5.605992279E0,9.975256348E-1,6.366366748E0
5.854377208E0,3.472329254E0,-5.587430878E0,7.415579224E-1,6.620148217E0
5.864351208E0,3.009940796E0,-3.157084808E0,3.080593872E0,5.340129838E0
5.874325208E0,2.595003662E0,-2.740501099E0,3.130739594E0,4.903664006E0
5.884299208E0,2.157463531E0,-2.955603790E0,2.518363037E0,4.442116054E0
5.894273208E0,2.163151703E0,-3.486250305E0,2.108215942E0,4.612780175E0
5.904247208E0,2.364483032E0,-3.974834290E0,2.629132690E0,5.320002476E0
5.914221208E0,2.034419403E0,-4.378245392E0,4.901108093E0,6.879589781E0
5.924195208E0,1.689536591E0,-6.360273743E0,5.201233978E0,8.388113666E0
5.934169208E0,1.540746002E0,-9.758207703E0,4.462819519E0,1.084035396E1
5.944142208E0,1.337468719E0,-1.265767822E1,5.676495667E0,1.393657934E1
5.954116208E0,1.195264435E0,-1.741074417E1,5.076393585E0,1.817504997E1
5.964090208E0,7.325765991E-1,-2.396022446E1,4.439019012E0,2.437896459E1
5.974064208E0,1.097218323E-1,-2.959181351E1,2.908152466E0,2.973457274E1
5.984038208E0,-1.754351807E-1,-3.374792084E1,9.457333374E-1,3.376162540E1
5.994012208E0,-5.812413025E-1,-3.618709854E1,-4.029620361E-1,3.619400946E1
6.003986208E0,-6.747967529E-1,-3.585568771E1,-4.781057739E-1,3.586522379E1
6.013960583E0,-2.454895020E-1,-3.228695892E1,2.161505127E-1,3.228861568E1
6.023934583E0,5.974076843E-1,-2.803939178E1,5.840853882E-1,2.805183672E1
6.033908583E0,2.029779053E0,-2.615840332E1,7.438032532E-1,2.624757723E1
6.043882583E0,5.257966003E0,-2.513797531E1,2.081870728E0,2.576622198E1
6.053855583E0,9.005423126E0,-2.459535370E1,3.902684326E0,2.648131443E1
6.063829583E0,1.103265747E1,-2.514246597E1,5.276078339E0,2.795890071E1
6.073803583E0,1.171344177E1,-2.669698334E1,6.226302338E0,2.981107979E1
6.083777583E0,9.610764313E0,-2.624477371E1,3.584895172E0,2.817811937E1
6.093751583E0,5.876629486E0,-2.321716965E1,5.640270996E-1,2.395599856E1
6.103725583E0,2.247875519E0,-2.043804886E1,2.201921082E-1,2.056247237E1
6.113699583E0,-6.951544189E-1,-1.782493286E1,3.782633972E-1,1.784249294E1
6.123673583E0,-2.307451630E0,-1.459315338E1,-2.724334717E-2,1.477447802E1
6.133647583E0,-2.905009003E0,-1.125314896E1,-2.180964661E-1,1.162411308E1
6.143621583E0,-3.341052246E0,-8.757239227E0,2.246827698E-1,9.375625384E0
6.153595583E0,-2.996468811E0,-6.492748260E0,-4.954696655E-2,7.151018124E0
6.163569583E0,-2.066752167E0,-3.506009216E0,-2.197430420E-1,4.075763996E0
6.173542583E0,-1.253193970E0,-9.255253601E-1,2.523751831E-1,1.578222276E0
6.183516583E0,-3.820056152E-1,1.305135956E0,1.305285645E-1,1.366142694E0
6.193490583E0,4.791535950E-1,3.076252899E0,-6.911128235E-1,3.189131073E0
6.203464583E0,7.676037598E-1,3.841012573E0,-1.263372803E-1,3.918999136E0
6.213438583E0,9.205856323E-1,4.113745422E0,1.788780212E-1,4.219286273E0
6.223412583E0,1.536854095E0,4.514911194E0,3.683839417E-1,4.783518614E0
6.233386583E0,2.254611511E0,4.894821167E0,1.465901642E0,5.584927479E0
6.243360583E0,3.008443909E0,4.922214203E0,3.056194611E0,6.528342279E0
6.253334583E0,3.306623840E0,4.637655945E0,3.753294983E0,6.821204960E0
6.263308583E0,2.822829895E0,4.127666473E0,3.168760529E0,5.920054258E0
6.273282583E0,1.871558075E0,3.458707581E0,1.992207184E0,4.408432513E0
6.283256583E0,9.382489014E-1,3.001258850E0,6.469546509E-1,3.210360728E0
6.293229583E0,3.861968994E-1,2.798280945E0,-9.939331055E-2,2.826553258E0
6.303203583E0,8.951385498E-2,2.735860748E0,-1.996847534E-1,2.744598471E0
6.313177583E0,-1.978884888E-1,2.607876892E0,1.365161133E-1,2.618934590E0
6.323151583E0,-5.427713013E-1,2.431393890E0,8.524772644E-1,2.633057998E0
6.333125583E0,-9.410929871E-1,1.741628265E0,1.278940430E0,2.356822787E0
6.343099583E0,-1.276545410E0,4.713697815E-1,1.137783966E0,1.773784093E0
6.353073583E0,-1.425485687E0,-1.031355286E-1,4.007167053E-1,1.484324850E0
6.363047583E0,-1.511706390E0,-3.284170532E-1,-4.593946838E-1,1.613740204E0
6.373021583E0,-1.421743469E0,-4.471202087E-1,-1.062640228E0,1.830430340E0
6.382995583E0,-1.070124664E0,-2.556683350E-1,-1.388512573E0,1.771581288E0
6.392969583E0,-6.502478027E-1,2.411485291E-1,-1.122366028E0,1.319348445E0
6.402943583E0,-1.434017944E-1,8.192463684E-1,-2.444416809E-1,8.668797046E-1
6.412916583E0,4.490661621E-4,1.401236115E0,6.509962463E-1,1.545075714E0
6.422890583E0,2.409988403E-2,1.849553833E0,1.354084167E0,2.292373032E0
6.432864583E0,2.552192688E-1,2.135010223E0,1.708397369E0,2.746275132E0
6.442838583E0,3.520678711E-1,2.327958984E0,1.745220795E0,2.930723535E0
6.452812583E0,6.131250000E-1,2.221530304E0,1.729503479E0,2.881371451E0
6.462786583E0,8.508306885E-1,2.030677185E0,1.657203827E0,2.755700857E0
6.472760583E0,9.223818970E-1,2.013612671E0,1.907183990E0,2.922802615E0
6.482734583E0,1.179846497E0,1.939965820E0,2.827769623E0,3.626539146E0
6.492708583E0,1.808090057E0,1.645977173E0,4.168381805E0,4.832580820E0
6.502682583E0,2.512225800E0,5.487588501E-1,4.339326324E0,5.044022967E0
6.512656583E0,2.085014191E0,-1.292412415E0,3.668720856E0,4.413289787E0
6.522630583E0,2.155667267E0,-2.334245911E0,3.395239563E0,4.650081400E0
6.532603583E0,2.543810120E0,-3.322041779E0,4.292623444E0,5.994459736E0
6.542577583E0,3.536994781E0,-5.141208801E0,6.536607056E0,9.037122984E0
6.552551583E0,5.691763916E0,-7.457192688E0,7.350913696E0,1.191813037E1
6.562525583E0,6.262527008E0,-2.159394516E1,4.475543060E0,2.292483801E1
6.572499583E0,-2.173929291E0,-6.978113937E1,9.824220428E0,7.050282752E1
6.582473583E0,3.220552826E0,-8.701330490E1,1.084794159E1,8.774602571E1
6.592447583E0,1.077953384E1,-7.379429398E1,6.533014526E0,7.486305131E1
6.602421583E0,6.148164825E0,-5.963059753E1,7.376360779E0,6.039883104E1
6.612395583E0,3.916904755E0,-3.707071106E1,3.644022217E0,3.745475483E1
6.622369583E0,4.223616943E0,-2.167507645E1,6.346801758E-2,2.208284192E1
6.632343583E0,2.979254608E0,-1.225800934E1,-1.513053589E0,1.270527773E1
6.642316583E0,8.545729065E-1,-8.496032410E0,-3.227887573E0,9.128642820E0
6.652290583E0,-7.032376099E-1,-8.319998474E0,-3.679947510E0,9.124633221E0
6.662264583E0,-1.572480011E0,-9.819430389E0,-4.099075928E0,1.075622285E1
6.672238583E0,-1.896855469E0,-1.230156876E1,-4.173920288E0,1.312814782E1
6.682212583E0,-2.042652283E0,-1.432925217E1,-3.180436249E0,1.481941533E1
6.692186583E0,-2.422562256E0,-1.629855698E1,-1.853745117E0,1.658156019E1
6.702160583E0,-2.342927856E0,-1.714744171E1,3.546125793E-1,1.731039625E1
6.712134583E0,-1.655557251E0,-1.606279724E1,2.543810120E0,1.634702710E1
6.722108583E0,-7.702981567E-1,-1.376597351E1,3.882027283E0,1.432360017E1
6.732082583E0,-1.234931946E-1,-1.180594940E1,4.225562897E0,1.253997901E1
6.742056583E0,3.079096985E-1,-1.007914032E1,3.968697052E0,1.083671695E1
6.752030583E0,-4.688250732E-1,-8.202941895E0,3.956721954E0,9.119413430E0
6.762003583E0,-1.645079041E-1,-6.158792725E0,4.676125946E0,7.734594013E0
6.771977583E0,-3.841012573E-1,-3.597019958E0,6.524631958E0,7.460355792E0
6.781951583E0,-2.446512451E0,3.079096985E-1,7.391329651E0,7.791789625E0
6.791925583E0,-6.045927429E-1,1.425785065E0,6.504274292E0,6.686103462E0
6.801899583E0,2.290387115E0,7.676037598E-1,4.993765411E0,5.547322026E0
6.811873583E0,2.915187836E0,9.524693298E-1,3.463497620E0,4.626157553E0
6.821847583E0,2.985391846E0,9.357041931E-1,1.213526459E0,3.355704587E0
6.831821583E0,2.733166351E0,8.060737610E-1,-1.053359528E0,3.038012427E0
6.841795583E0,2.084714813E0,5.897735596E-1,-2.811902618E0,3.549741545E0
6.851769583E0,1.294957123E0,1.999841309E-1,-3.924838257E0,4.137784787E0
6.861743583E0,7.914042664E-1,-3.606001282E-1,-4.322860565E0,4.409475777E0
6.871717583E0,3.348536682E-1,-1.035845947E0,-3.706741791E0,3.863293738E0
6.881690583E0,-1.844165039E-1,-1.802102509E0,-2.245031433E0,2.884744189E0
6.891664583E0,-2.894979858E-1,-2.618504791E0,-1.069825287E0,2.843396309E0
6.901638583E0,8.861572266E-2,-3.366050262E0,-2.014810181E-1,3.373239054E0
6.911612583E0,4.191284180E-1,-4.202211456E0,5.460644531E-1,4.258219832E0
6.921586583E0,5.536985779E-1,-5.121000824E0,1.388213196E0,5.334638454E0
6.931560583E0,7.458988953E-1,-5.989794159E0,2.641407166E0,6.588704808E0
6.941534583E0,9.508227539E-1,-6.501579895E0,4.202361145E0,7.799643853E0
6.951508583E0,1.096320190E0,-6.482419739E0,5.357658691E0,8.481048891E0
6.961482583E0,1.596579895E0,-5.607040100E0,5.458399200E0,7.986368879E0
6.971456583E0,2.346819763E0,-4.249962158E0,4.684658203E0,6.746537173E0
6.981430583E0,3.105741577E0,-3.488345947E0,3.496578827E0,5.834402427E0
6.991403583E0,3.660937042E0,-3.174149323E0,2.030677185E0,5.253697153E0
7.001377583E0,3.329526215E0,-3.218606873E0,1.290167084E0,4.807255570E0
7.011351583E0,1.875899048E0,-4.688550110E0,1.608554993E0,5.299900804E0
7.021325000E0,5.426216125E-1,-7.391179962E0,2.223775635E0,7.737516237E0
7.031299000E0,-7.783813477E-2,-1.049662216E1,2.806663513E0,1.086565671E1
7.041273000E0,-6.984475708E-1,-1.406924286E1,3.261118469E0,1.445912574E1
7.051247000E0,-8.243357849E-1,-1.780322800E1,3.869902496E0,1.823761503E1
7.061221000E0,-1.869612122E-1,-2.034688843E1,4.474046173E0,2.083381656E1
7.071195000E0,1.186732178E0,-2.027788193E1,4.890031128E0,2.089289911E1
7.081169000E0,1.966909790E0,-1.811877182E1,4.965324554E0,1.888949640E1
7.091143000E0,1.322200470E0,-1.648147659E1,5.248685303E0,1.734750651E1
7.101117000E0,5.652246094E-1,-1.715148331E1,5.675447845E0,1.807494306E1
7.111090000E0,2.704875183E-1,-1.933753738E1,5.655090179E0,2.014928189E1
7.121064000E0,4.981640625E-1,-2.150263504E1,5.207969971E0,2.212994425E1
7.131038000E0,6.168672180E-1,-2.401051987E1,4.841082916E0,2.450146268E1
7.141012000E0,8.834628296E-1,-2.729199600E1,4.444407806E0,2.766561608E1
7.150986000E0,1.651665344E0,-3.034564590E1,4.041296082E0,3.065808699E1
7.160960000E0,3.191662903E0,-3.149675217E1,3.694317627E0,3.187287392E1
7.170934000E0,5.176984406E0,-2.990062134E1,3.993545380E0,3.060713526E1
7.180908000E0,6.429130554E0,-2.747087402E1,5.900879059E0,2.882365371E1
7.190882000E0,6.482569427E0,-2.608924713E1,7.793692932E0,2.798953683E1
7.200856000E0,5.422024841E0,-2.626183823E1,5.909710693E0,2.745919119E1
7.210830000E0,4.320465546E0,-2.576023132E1,5.135520630E0,2.662009603E1
7.220804000E0,3.438798981E0,-2.466900055E1,5.525010681E0,2.551295102E1
7.230777000E0,2.351609802E0,-2.373284729E1,5.311105499E0,2.443329595E1
7.240751000E0,1.166973267E0,-2.257395721E1,4.560266876E0,2.305951875E1
7.250725000E0,1.481918335E-2,-2.103380997E1,3.218457184E0,2.127862420E1
7.260699000E0,-9.900411987E-1,-1.883203857E1,1.637145538E0,1.892897525E1
7.270673000E0,-1.403032379E0,-1.591400665E1,2.603086853E-1,1.597785556E1
7.280647000E0,-8.976832581E-1,-1.244826370E1,-8.042774963E-1,1.250647699E1
7.290621000E0,-5.194198608E-1,-9.075477448E0,-1.107846222E0,9.157587627E0
7.300595000E0,-2.459385681E-1,-5.852978668E0,-1.156045990E0,5.971121118E0
7.310569000E0,1.625320129E0,-1.988464966E0,-9.240284729E-1,2.729374848E0
7.320543000E0,2.907853088E0,1.071471863E0,-6.945556641E-1,3.175857224E0
7.330517000E0,1.577868805E0,3.015928345E0,1.319805450E0,3.650668456E0
7.340490000E0,1.193917236E0,4.053570557E0,-2.790197754E-1,4.234940928E0
7.350464000E0,1.119671631E0,3.964954834E0,-1.743574219E0,4.473766026E0
7.360438000E0,6.959028625E-1,3.576362915E0,-1.340312805E0,3.882150295E0
7.370412000E0,5.456153870E-1,3.367098083E0,-1.060843964E0,3.572175187E0
7.380386000E0,4.140390015E-1,3.796405334E0,-3.731739807E-1,3.837105755E0
7.390360000E0,5.688171387E-1,4.274062042E0,-1.224453735E-1,4.313484919E0
7.400334000E0,5.183720398E-1,3.416944427E0,-5.897735596E-2,3.456544101E0
7.410308000E0,1.784289551E-1,2.424957275E0,7.460485840E-1,2.543392060E0
7.420282000E0,1.366658020E-1,2.277214508E0,1.751208344E0,2.875954471E0
7.430256000E0,2.695893860E-1,1.958227844E0,2.415975952E0,3.121582055E0
7.440230000E0,4.755610657E-1,1.669777679E0,2.556683350E0,3.090460415E0
7.450204000E0,5.709127808E-1,1.393152924E0,2.488425293E0,2.908449228E0
7.460177000E0,5.568420410E-1,1.173110504E0,2.260748749E0,2.607152895E0
7.470151000E0,5.406756592E-1,1.020727386E0,1.944306793E0,2.261535645E0
7.480125000E0,6.340814209E-1,9.833052063E-1,1.710043945E0,2.072003541E0
7.490099000E0,7.596702576E-1,9.803114319E-1,1.523382111E0,1.964383481E0
7.500073000E0,8.937913513E-1,9.779164124E-1,1.206341400E0,1.791770929E0
7.510047000E0,1.010249176E0,1.037193146E0,7.738906860E-1,1.641730737E0
7.520021000E0,1.267863464E0,1.237027588E0,-3.932322693E-1,1.814482470E0
7.529995000E0,1.620530090E0,1.701212311E0,-3.264710999E0,4.022260435E0
7.539969000E0,1.670526123E0,2.137105865E0,-5.590274963E0,6.213618364E0
7.549943000E0,1.178050232E0,1.993404694E0,-4.530329132E0,5.087764408E0
7.559917000E0,6.125262451E-1,1.433718567E0,-1.622176666E0,2.249932103E0
7.569890000E0,4.966671753E-1,1.142873383E0,7.285050659E0,7.390859284E0
7.579864000E0,1.616638184E-2,1.446292419E0,4.210893402E0,4.452375361E0
7.589838000E0,-2.027234344E0,1.920356598E0,3.280578003E0,4.308090132E0
7.599812000E0,-2.119292908E0,1.639241180E0,2.951562195E0,3.986255570E0
7.609786000E0,-1.573078766E0,2.128872986E0,-1.962419128E-1,2.654277281E0
7.619760000E0,-5.718109131E-1,2.114203491E0,2.050136719E0,2.999980781E0
7.629734000E0,-1.136137390E-1,7.487429810E-1,1.328637085E0,1.529313780E0
7.639708000E0,-4.454736328E-1,4.246669006E-1,-1.886077881E-2,6.157470771E-1
7.649682000E0,-1.492396545E-1,-4.369413757E-1,1.237476654E0,1.320809869E0
7.659656000E0,7.197033691E-1,-1.123264160E0,4.177363129E0,4.385209005E0
7.669630000E0,1.842817841E0,-2.631228333E0,6.257886658E0,7.034236672E0
7.679604000E0,2.912343750E0,-6.377937012E0,6.580465851E0,9.615734889E0
7.689577000E0,3.996688843E0,-1.101708984E1,4.476740570E0,1.254555684E1
7.699551000E0,5.321134644E0,-1.187570435E1,2.385888519E0,1.323024156E1
7.709525000E0,5.034480743E0,-1.361388977E1,7.652985535E0,1.640890547E1
7.719499000E0,4.062402191E0,-1.296319290E1,2.829116821E0,1.387628854E1
7.729473000E0,1.946402435E0,-1.466919525E1,-3.756588135E0,1.526714532E1
7.739447000E0,-1.496887207E-2,-1.067011139E1,4.951852570E0,1.176317750E1
7.749421000E0,-5.478607178E-2,-2.257081375E1,6.519542542E0,2.349359636E1
7.759395000E0,-5.017116852E0,-6.937772827E1,9.298962708E0,7.017771262E1
7.769369000E0,-1.088237000E-1,-9.959194748E1,1.884670807E1,1.013595888E2
7.779343000E0,8.459957428E0,-8.462966171E1,1.864822083E1,8.707184770E1
7.789317000E0,4.745731201E0,-4.568005783E1,1.083985840E1,4.718783930E1
7.799291000E0,1.025367737E0,-2.211216751E1,3.635639648E0,2.243250335E1
7.809264000E0,1.328487396E0,-3.818708954E0,1.123264160E0,4.196324488E0
7.819238000E0,-1.277144165E0,2.246827698E-1,-5.222040710E0,5.380640180E0
7.829212000E0,1.089733887E-1,-1.020832169E1,-1.109133545E1,1.507446281E1
7.839186000E0,6.402635651E0,-1.448986816E1,-9.635762329E0,1.854178897E1
7.849160000E0,3.192860413E0,-1.495944168E1,-3.142265625E0,1.561579605E1
7.859134000E0,-3.005749512E-1,-1.420830368E1,2.914289703E0,1.450721625E1
7.869108000E0,-2.337389374E0,-1.246847168E1,6.179749146E0,1.411082828E1
7.879082000E0,-3.303031311E0,-9.725425873E0,6.985523529E0,1.242141148E1
7.889056000E0,-2.229014740E0,-7.065008240E0,5.284760284E0,9.100084582E0
7.899030000E0,-7.777825928E-1,-5.038222961E0,2.559677124E0,5.704435410E0
7.909004000E0,-3.046165466E-1,-3.469485168E0,3.644920349E-1,3.501852798E0
7.918977000E0,-5.252577209E-1,-1.859732666E0,-6.864724731E-1,2.050791486E0
7.928951000E0,-8.161029053E-1,-8.458909607E-1,-3.071612549E-1,1.214867691E0
7.938925000E0,-7.626640320E-1,-3.769161987E-1,5.785469055E-1,1.028804534E0
7.948899000E0,-6.289920044E-1,-1.302291870E-2,1.332229614E0,1.473307939E0
7.958873000E0,-4.052073669E-1,1.853146362E-1,1.332978058E0,1.405476797E0
7.968847000E0,-5.313949585E-2,8.457412720E-2,4.180805969E-1,4.298464546E-1
7.978821000E0,1.477427673E-1,-6.825805664E-2,-4.909790039E-1,5.172499105E-1
7.988795000E0,4.201762390E-1,-5.433700562E-1,-4.376898193E-1,8.144761922E-1
7.998769000E0,6.653663635E-1,-1.441203003E0,3.570075989E-1,1.627031935E0
8.008743000E0,7.417076111E-1,-2.210752716E0,1.166973267E0,2.607562915E0
8.018717333E0,8.677455139E-1,-2.947221222E0,1.658551025E0,3.491401826E0
8.028691333E0,8.249345398E-1,-3.858077087E0,1.611099701E0,4.261562865E0
8.038664333E0,6.732998657E-1,-5.028493195E0,9.427395630E-1,5.160216507E0
8.048638333E0,5.495072937E-1,-6.809339905E0,3.749702454E-1,6.841759342E0
8.058612333E0,3.237767029E-1,-9.090146942E0,4.234693909E-1,9.105763510E0
8.068586333E0,3.155438232E-1,-1.115405502E1,1.083297272E0,1.121097874E1
8.078560333E0,4.599934387E-1,-1.212748077E1,2.026336212E0,1.230420344E1
8.088534333E0,4.478686523E-1,-1.196057785E1,3.231929169E0,1.239763586E1
8.098508333E0,4.743635559E-1,-1.189157135E1,4.214635620E0,1.262527795E1
8.108482333E0,7.399113464E-1,-1.239751923E1,4.657714233E0,1.326424719E1
8.118456333E0,1.059197388E0,-1.324805054E1,4.561314697E0,1.405127517E1
8.128430333E0,1.241817627E0,-1.399215317E1,3.968247986E0,1.459689876E1
8.138404333E0,1.302591248E0,-1.422087753E1,2.964884491E0,1.458494573E1
8.148377333E0,1.017134857E0,-1.395323410E1,1.829196167E0,1.410933251E1
8.158351333E0,6.242019653E-1,-1.343381424E1,7.217990112E-1,1.346766449E1
8.168325333E0,2.275268555E-1,-1.290331741E1,-1.833686829E-1,1.290662593E1
8.178299333E0,-2.297721863E-1,-1.223375977E1,-5.665718079E-1,1.224902759E1
8.188273333E0,-3.532653809E-1,-1.158261383E1,-3.942800903E-1,1.159470553E1
8.198247333E0,-3.303630066E-1,-1.120240448E1,2.088157654E-1,1.120921986E1
8.208221333E0,-2.944377136E-1,-1.098625397E1,9.448352051E-1,1.103073812E1
8.218195333E0,-4.957690430E-1,-1.041354492E1,1.268462219E0,1.050222363E1
8.228169333E0,-6.589297485E-1,-9.243128815E0,1.166673889E0,9.339740182E0
8.238143333E0,-6.855743408E-1,-7.966733093E0,9.943821716E-1,8.057769186E0
8.248117333E0,-5.176235962E-1,-6.726861420E0,1.282832336E0,6.867623865E0
8.258091333E0,-2.577639771E-1,-5.448669434E0,1.952389984E0,5.793640265E0
8.268064333E0,-5.867797852E-2,-4.529281311E0,2.346969452E0,5.101577982E0
8.278038333E0,2.055226135E-1,-3.608995056E0,2.241887970E0,4.253603946E0
8.288012333E0,1.076112213E0,-2.545456696E0,2.035467224E0,3.432272440E0
8.297986333E0,1.585353241E0,-2.214045868E0,2.242037659E0,3.527332826E0
8.307960333E0,1.754501495E0,-1.832339630E0,2.311792603E0,3.432219261E0
8.317934333E0,2.045496368E0,-1.221310272E0,2.162702637E0,3.217597997E0
8.327908333E0,2.501148834E0,1.326242065E-1,2.259551239E0,3.373263475E0
8.337882333E0,2.740052032E0,1.754351807E0,2.362387390E0,4.020759827E0
8.347856333E0,2.295925598E0,3.083437958E0,2.349514160E0,4.505450120E0
8.357830333E0,1.566791840E0,3.992946625E0,1.708097992E0,4.616931683E0
8.367804333E0,1.204694824E0,4.143533478E0,1.239272919E0,4.489538581E0
8.377777333E0,1.338067474E0,1.761387177E0,3.391197968E0,4.048843416E0
8.387751333E0,1.202449493E0,-2.336640930E0,5.348976746E0,5.959641587E0
8.397725333E0,1.819915466E0,-3.925287323E0,4.335733795E0,6.125239621E0
8.407699333E0,8.122109985E-1,-7.062014465E0,3.986060944E0,8.149872199E0
8.417673333E0,6.029461670E-1,-9.331445160E0,3.949686584E0,1.015083430E1
8.427647333E0,4.173321533E-1,-1.312994614E1,3.826343079E0,1.368249075E1
8.437621333E0,-7.289840698E-1,-1.998553986E1,3.093167725E0,2.023662293E1
8.447595333E0,-1.803300018E0,-2.675700851E1,1.926942902E0,2.688684631E1
8.457569333E0,-1.693129120E0,-3.222109589E1,1.798210602E0,3.231561956E1
8.467543333E0,-4.354444885E-1,-3.437032654E1,2.728526001E0,3.448120955E1
8.477517333E0,1.583407288E0,-3.162159256E1,4.353097687E0,3.195906372E1
8.487490333E0,2.223925323E0,-2.809552505E1,5.037474518E0,2.863006325E1
8.497464333E0,1.544787598E0,-2.663366501E1,4.570894775E0,2.706716756E1
8.507438333E0,8.369096375E-1,-2.691732513E1,4.150868225E0,2.724834889E1
8.517412333E0,1.236578522E0,-2.795826050E1,4.457281036E0,2.833832759E1
8.527386333E0,2.519410858E0,-2.905622726E1,5.560636597E0,2.969061221E1
8.537360333E0,3.488495636E0,-3.015239777E1,6.472390594E0,3.103592326E1
8.547334333E0,4.477788391E0,-3.034594528E1,6.177803192E0,3.129044960E1
8.557308333E0,4.938530273E0,-2.966306534E1,4.446802826E0,3.039836479E1
8.567282333E0,4.302053833E0,-2.770244247E1,1.178349609E0,2.805924971E1
8.577256333E0,2.616109772E0,-2.502915161E1,-2.448009338E0,2.528428782E1
8.587230333E0,1.317560120E0,-2.286375458E1,-2.454745331E0,2.303286810E1
8.597204333E0,-6.586303711E-3,-1.971250763E1,-2.799777832E0,1.991034295E1
8.607177333E0,-1.000968475E0,-1.641067383E1,-2.813848572E0,1.668022473E1
8.617151333E0,-7.084767151E-1,-1.391012375E1,-1.227297821E0,1.398212222E1
8.627125333E0,1.544787598E-1,-1.231459167E1,7.066804504E-1,1.233581895E1
8.637099333E0,3.591032410E-1,-9.439819794E0,2.050436096E0,9.666614767E0
8.647073333E0,-2.914439392E-1,-6.294859772E0,2.379152527E0,6.735767652E0
8.657047333E0,-9.939331055E-1,-3.292104034E0,2.147284698E0,4.054217997E0
8.667021333E0,-9.943821716E-1,-3.457809448E-1,2.146386566E0,2.390676820E0
8.676995333E0,-6.304888916E-1,2.494412842E0,1.795815582E0,3.137605022E0
8.686969333E0,-6.560856628E-1,4.744084625E0,1.374142456E0,4.982474768E0
8.696943333E0,-4.848417664E-1,6.393354950E0,7.893086243E-1,6.460113556E0
8.706917333E0,3.332070923E-1,7.207212524E0,2.082170105E-1,7.217914772E0
8.716890333E0,1.341809692E0,7.519014130E0,-3.799099731E-1,7.647245146E0
8.726864333E0,2.122436371E0,7.196734314E0,-8.785231018E-1,7.554437357E0
8.736838333E0,2.786455536E0,6.424639893E0,-6.038442993E-1,7.028866206E0
8.746812333E0,3.356320496E0,5.311554565E0,5.152285767E-1,6.304201746E0
8.756786333E0,3.728446655E0,4.353995819E0,2.147883453E0,6.121437526E0
8.766760333E0,2.549947357E0,2.723137207E0,3.373834076E0,5.029956674E0
8.776734333E0,9.404942322E-1,1.132844238E0,4.399052124E0,4.638914211E0
8.786708333E0,-1.170565796E-1,7.098239136E-1,4.567751312E0,4.624057124E0
8.796682333E0,-8.051756287E-1,4.120930481E-1,3.476071472E0,3.591824237E0
8.806656333E0,-7.768844604E-1,4.601431274E-1,1.896855469E0,2.100795524E0
8.816630333E0,-5.634283447E-1,3.373983765E-1,1.236129456E0,1.399751833E0
8.826604333E0,-4.421804810E-1,-9.011260986E-2,8.863069153E-1,9.945772008E-1
8.836577333E0,-1.136137390E-1,-1.630110168E-1,8.327183533E-1,8.560960981E-1
8.846551333E0,2.911445618E-1,-4.520599365E-2,1.001866608E0,1.044291835E0
8.856525333E0,6.056405640E-1,1.736389160E-1,1.005459137E0,1.186549216E0
8.866499333E0,9.623487854E-1,4.851411438E-1,9.624984741E-1,1.444949974E0
8.876473333E0,1.401834869E0,7.200027466E-1,7.521858215E-1,1.746232650E0
8.886447333E0,1.643133087E0,5.023553467E-1,-5.216651917E-1,1.795656373E0
8.896421333E0,1.606159973E0,1.529818726E-1,-1.514700165E0,2.213022797E0
8.906395333E0,1.427431641E0,1.516346741E-1,-1.778751068E0,2.285718602E0
8.916369333E0,8.482859802E-1,3.050656128E-1,-1.602268066E0,1.838455082E0
8.926343333E0,2.070195007E-1,1.881587219E-1,-1.261426849E0,1.292075259E0
8.936317333E0,-6.279441833E-1,1.960922241E-2,-1.366358643E0,1.503873119E0
8.946290333E0,-1.314566345E0,-2.010319519E-1,-1.387614441E0,1.921970957E0
8.956264333E0,-1.389111328E0,-5.186714172E-1,-4.038601685E-1,1.536799713E0
8.966238333E0,-9.782157898E-1,-7.387138367E-1,9.003776550E-1,1.520948449E0
8.976212333E0,-4.337979126E-1,-1.046773224E0,1.845811615E0,2.165856719E0
8.986186333E0,1.779798889E-1,-2.180365906E0,2.694097595E0,3.470422766E0
8.996160333E0,7.572752380E-1,-3.857927399E0,3.888463898E0,5.529667357E0
9.006134333E0,1.817071381E0,-5.631589050E0,4.658013611E0,7.530845532E0
9.016108500E0,2.411485291E0,-8.533454590E0,3.413202209E0,9.501844972E0
9.026082500E0,2.148033142E0,-1.240590179E1,1.167721710E0,1.264452529E1
9.036056500E0,1.451232147E0,-1.733664825E1,-1.023870850E0,1.742738532E1
9.046030500E0,8.475375366E-1,-2.531176392E1,1.685794373E0,2.538199391E1
9.056004500E0,1.719923401E-1,-3.618335632E1,4.849764862E0,3.650732906E1
9.065977500E0,-2.179767151E0,-4.995980804E1,5.901926880E0,5.035440940E1
9.075951500E0,-4.450844421E0,-5.539081421E1,7.483088837E0,5.607092770E1
9.085925500E0,-2.326761475E0,-4.336063110E1,8.044571228E0,4.416189845E1
9.095899500E0,2.827320557E0,-3.213038452E1,8.555009766E0,3.336979987E1
9.105873500E0,6.068829803E0,-2.658411804E1,7.610324249E0,2.831012297E1
9.115847500E0,8.353079681E0,-2.322300751E1,5.444627838E0,2.527302891E1
9.125821500E0,9.363029480E0,-2.238804382E1,2.332749023E0,2.437893651E1
9.135795500E0,7.169490967E0,-2.362866394E1,-2.551743622E0,2.482391500E1
9.145769500E0,2.637066193E0,-2.404479858E1,-6.350094910E0,2.500860177E1
9.155743500E0,-1.336570587E0,-2.158211975E1,-7.957602081E0,2.304121839E1
9.165717500E0,-3.694617004E0,-1.878713196E1,-7.693551178E0,2.063485526E1
9.175690500E0,-4.290228424E0,-1.670436310E1,-4.926704865E0,1.793639393E1
9.185664500E0,-3.936364288E0,-1.502231094E1,-1.189576263E0,1.557497613E1
9.195638500E0,-3.588338013E0,-1.323862015E1,1.274300079E0,1.377537926E1
9.205612500E0,-2.476599884E0,-1.122410934E1,3.450923767E0,1.200096048E1
9.215586500E0,-1.343755646E0,-8.925639038E0,4.817881165E0,1.023155366E1
9.225560500E0,-6.848258972E-1,-6.598278809E0,5.503305817E0,8.619318109E0
9.235534500E0,-4.567002869E-1,-4.765939178E0,5.252277832E0,7.106980641E0
9.245508500E0,-6.283932495E-1,-3.445684662E0,4.283492432E0,5.533166207E0
9.255482500E0,-7.038363647E-1,-2.567760315E0,3.332969055E0,4.265848261E0
9.265456500E0,-7.493417358E-1,-1.868264923E0,2.035467224E0,2.862700418E0
9.275430500E0,-5.766009521E-1,-1.652264099E0,8.623567200E-1,1.950923992E0
9.285403500E0,-8.307723999E-2,-1.254241791E0,-1.933978271E-1,1.271781041E0
9.295377500E0,6.864724731E-1,-5.596861267E-1,-1.090931396E0,1.405213268E0
9.305351500E0,1.700613556E0,-2.119592285E-1,-1.524130554E0,2.293466182E0
9.315325500E0,2.683170319E0,-3.682342529E-2,-1.638642426E0,3.144186369E0
9.325299500E0,3.224145355E0,4.565505981E-2,-1.524429932E0,3.566662904E0
9.335273500E0,3.324736176E0,-1.344204712E-1,-1.257235565E0,3.557046635E0
9.345247500E0,2.925666046E0,-4.291575623E-1,-9.464817810E-1,3.104758572E0
9.355221500E0,2.196382599E0,-9.867480469E-1,-2.659968567E-1,2.422503366E0
9.365195500E0,1.415606232E0,-2.105222168E0,6.053411865E-1,2.608129470E0
9.375169500E0,8.354127502E-1,-3.614683228E0,1.412013702E0,3.969588391E0
9.385143500E0,6.182144165E-1,-4.889582062E0,1.718426514E0,5.219501076E0
9.395117500E0,6.580316162E-1,-6.349496155E0,1.816023560E0,6.636795055E0
9.405090500E0,7.571255493E-1,-7.975714417E0,2.258952484E0,8.323948935E0
9.415064500E0,8.951385498E-1,-9.847272491E0,2.795436859E0,1.027543263E1
9.425038500E0,9.156459045E-1,-1.242401413E1,3.042273560E0,1.282380454E1
9.435012500E0,7.987390137E-1,-1.545895294E1,3.240311737E0,1.581508237E1
9.444986500E0,-3.487747192E-2,-1.941387863E1,3.931274872E0,1.980794846E1
9.454960500E0,-9.240284729E-1,-2.245435593E1,4.517156525E0,2.292284083E1
9.464934500E0,-2.326013031E0,-2.283950500E1,5.051994324E0,2.350693455E1
9.474908500E0,-3.601809998E0,-2.018911652E1,3.974534912E0,2.088948034E1
9.484882500E0,-3.796704712E0,-1.529923508E1,1.874252472E0,1.587433094E1
9.494856500E0,-3.243904266E0,-1.108579697E1,-5.795947266E-1,1.156519517E1
9.504830500E0,-2.305954742E0,-8.363707581E0,-2.513872375E0,9.032640040E0
9.514803500E0,-1.000369720E0,-6.169570312E0,-4.268972626E0,7.568914367E0
9.524777500E0,1.454974365E-1,-4.519102478E0,-7.264094238E0,8.556314733E0
9.534751500E0,7.554789734E-1,-3.779789886E0,-8.498128052E0,9.331438284E0
9.544725500E0,4.746629333E-1,-4.022435303E0,-5.045408020E0,6.470041171E0
9.554699500E0,4.710704041E-1,-3.948788452E0,-1.481768646E0,4.243875103E0
9.564673500E0,6.863227844E-1,-3.898043976E0,1.766326904E-2,3.958042167E0
9.574647500E0,6.451583862E-1,-3.820505219E0,1.000818787E0,4.001765574E0
9.584621500E0,4.893324280E-1,-3.408861237E0,1.836830292E0,3.903040696E0
9.594595500E0,3.035687256E-1,-3.056344299E0,2.376458130E0,3.883419587E0
9.604569500E0,2.177970886E-1,-2.736459503E0,3.197500763E0,4.214220843E0
9.614543500E0,5.255570984E-1,-2.692451019E0,4.071682892E0,4.909593092E0
9.624517500E0,1.293160858E0,-2.408341827E0,4.346960449E0,5.135020984E0
9.634490500E0,1.914069672E0,-2.272424469E0,3.410208435E0,4.522952271E0
9.644464500E0,2.381098480E0,-2.375859375E0,2.164199524E0,3.999762158E0
9.654438500E0,2.797682190E0,-2.237546997E0,1.923799438E0,4.066281653E0
9.664412500E0,3.071163483E0,-2.539319458E0,2.174528046E0,4.539687288E0
9.674386500E0,3.231779480E0,-3.548221436E0,3.074007568E0,5.699455807E0
9.684360500E0,2.790197754E0,-5.492528229E0,4.541555786E0,7.653678776E0
9.694334500E0,1.889670410E0,-8.124205627E0,4.823269958E0,9.635222075E0
9.704308500E0,1.082249451E0,-1.062131287E1,4.236639862E0,1.148619468E1
9.714282500E0,-1.059796143E-1,-1.372316254E1,3.340154114E0,1.412420090E1
9.724256500E0,-1.624122620E0,-1.714639389E1,2.638263702E0,1.742403607E1
9.734230500E0,-2.873574371E0,-2.030527496E1,2.419867859E0,2.064987606E1
9.744203500E0,-3.829935608E0,-2.268727158E1,3.046165466E0,2.320904613E1
9.754177500E0,-4.691843262E0,-2.433100342E1,4.043391724E0,2.510697387E1
9.764151500E0,-5.696703644E0,-2.591006973E1,4.243824921E0,2.686622779E1
9.774125500E0,-6.103557587E0,-2.760768951E1,4.037104797E0,2.856109505E1
9.784099500E0,-5.111271057E0,-2.909050598E1,3.899540863E0,2.979243275E1
9.794073500E0,-2.876867523E0,-2.956232483E1,3.641926575E0,2.992442222E1
9.804047500E0,1.395098877E-1,-2.890668823E1,3.399879913E0,2.910627546E1
9.814021500E0,3.510948944E0,-2.839280685E1,3.052452393E0,2.877143912E1
9.823995500E0,6.850504303E0,-2.862706970E1,2.569257202E0,2.954724372E1
9.833969500E0,9.222771149E0,-2.928510132E1,2.217638397E0,3.078302433E1
9.843943500E0,1.040156982E1,-3.017634796E1,3.037782898E0,3.206294990E1
9.853916500E0,9.671388245E0,-2.970602600E1,3.485352173E0,3.143455759E1
9.863890500E0,4.148473206E0,-2.619926834E1,-2.017354889E0,2.660227833E1
9.873864500E0,-6.270460510E-1,-2.333407654E1,-5.805377655E0,2.405358028E1
9.883838500E0,-2.732567596E0,-2.091435837E1,-5.650599518E0,2.183590132E1
9.893812500E0,-3.352727966E0,-1.841979584E1,-3.023562469E0,1.896500972E1
9.903786500E0,-2.970273285E0,-1.535102737E1,-2.392025757E-1,1.563757599E1
9.913760500E0,-2.038161621E0,-1.207733505E1,1.327738953E0,1.231986264E1
9.923734500E0,-1.157542877E0,-1.000743942E1,2.244732056E0,1.032121947E1
9.933708500E0,-2.282752991E-1,-8.205037537E0,3.085084534E0,8.768836706E0
9.943682500E0,3.441343689E-1,-5.601950684E0,2.865640869E0,6.301759875E0
9.953656500E0,6.252497864E-1,-2.773881683E0,2.360142059E0,3.695352139E0
9.963630500E0,9.943821716E-1,-2.709365845E-1,2.209405518E0,2.437965397E0
9.973603500E0,1.265169067E0,1.907034302E0,2.265688477E0,3.220369058E0
9.983577500E0,1.430425415E0,3.652554474E0,2.259551239E0,4.526902126E0
9.993551500E0,1.417103119E0,4.761298828E0,2.293231201E0,5.471476686E0
1.000352550E1,1.537153473E0,5.441035309E0,2.359692993E0,6.126651374E0
1.001349950E1,2.025438080E0,6.199358368E0,3.172652435E0,7.252597263E0
1.002347350E1,3.103945312E0,6.468947754E0,4.429738312E0,8.432339121E0
1.003344750E1,4.514611816E0,6.582711182E0,5.365891571E0,9.618035075E0
1.004342150E1,5.449717255E0,6.618337097E0,5.046455841E0,9.948292348E0
1.005339550E1,5.265001373E0,6.302643585E0,3.458557892E0,8.910958327E0
1.006336950E1,4.473597107E0,5.429808655E0,1.621278534E0,7.219725562E0
1.007334350E1,3.303929443E0,3.768114166E0,-4.159849548E-1,5.028685476E0
1.008331650E1,2.040107574E0,1.414558411E0,-1.224004669E0,2.767887614E0
1.009329050E1,1.442699890E0,-9.669891357E-2,-1.228794708E0,1.897543172E0
1.010326450E1,1.314566345E0,-4.417314148E-1,-1.462309113E0,2.015331055E0
1.011323850E1,1.544338531E0,-4.243675232E-1,-1.402134247E0,2.128626257E0
1.012321250E1,1.847607880E0,-3.796105957E-1,-1.263372803E0,2.270213629E0
1.013318650E1,1.880988464E0,-4.936734009E-1,-1.076710968E0,2.222866964E0
1.014316050E1,1.417252808E0,-7.765850830E-1,-1.020278320E0,1.911192759E0
1.015313450E1,6.527925110E-1,-9.804611206E-1,-1.267713776E0,1.730474007E0
1.016310850E1,-6.541397095E-2,-1.014440460E0,-1.502874756E0,1.814387215E0
1.017308250E1,-4.643344116E-1,-1.143472137E0,-1.239721985E0,1.749298595E0
1.018305650E1,-6.077362061E-1,-1.148411865E0,-4.326004028E-1,1.369429157E0
1.019303050E1,-6.219566345E-1,-1.023421783E0,7.152127075E-1,1.394901939E0
1.020300350E1,-6.418652344E-1,-8.026309204E-1,1.822310486E0,2.092133571E0
1.021297750E1,-7.207511902E-1,-4.029620361E-1,2.323168945E0,2.465557671E0
1.022295150E1,-8.253836060E-1,1.483415222E-1,2.229314117E0,2.381828025E0
1.023292550E1,-8.256829834E-1,4.104464722E-1,2.118694153E0,2.310645713E0
1.024289950E1,-6.674620056E-1,4.387376404E-1,2.161355438E0,2.304225157E0
1.025287350E1,-3.911366272E-1,5.559439087E-1,2.188598785E0,2.291729944E0
1.026284750E1,1.287322998E-2,7.795788574E-1,2.377805328E0,2.502372293E0
1.027282150E1,4.294569397E-1,7.942483521E-1,3.043620758E0,3.174726922E0
1.028279550E1,8.419990540E-1,4.052073669E-1,3.552113342E0,3.672964009E0
1.029276950E1,1.287472687E0,-4.046086121E-1,3.385809174E0,3.644859093E0
1.030274350E1,1.308578796E0,-9.009764099E-1,2.908451843E0,3.314095515E0
1.031271650E1,1.557511139E0,-2.500699768E0,2.787203979E0,4.055594445E0
1.032269050E1,2.681074677E0,-5.872887268E0,3.938609619E0,7.562513604E0
1.033266450E1,4.311484222E0,-1.891257111E1,3.627855835E0,1.973412223E1
1.034263850E1,3.140768738E0,-4.838702866E1,4.385430450E0,4.868676381E1
1.035261250E1,4.503983917E0,-8.117484604E1,4.271217957E0,8.141182226E1
1.036258650E1,1.039453445E1,-7.761839172E1,3.016676788E0,7.836939083E1
1.037256050E1,1.290017395E1,-5.851481781E1,2.054178314E0,5.995513356E1
1.038253450E1,7.462581482E0,-3.863720352E1,2.064057770E0,3.940537974E1
1.039250850E1,3.674858093E0,-2.303993820E1,1.522783356E0,2.338080844E1
1.040248250E1,2.299218750E0,-1.501527557E1,-2.686912537E-1,1.519266607E1
1.041245650E1,3.177741852E0,-1.084809128E1,-3.050506439E0,1.170831829E1
1.042243050E1,5.405259705E0,-9.915979614E0,-6.572232971E0,1.306666485E1
1.043240350E1,5.923032990E0,-1.277578262E1,-7.953410797E0,1.617280695E1
1.044237750E1,5.159021759E0,-1.657922333E1,-6.072572021E0,1.839462646E1
1.045235150E1,2.441423035E0,-1.838297241E1,-3.140319672E0,1.880839783E1
1.046232550E1,-1.138831787E0,-1.902932831E1,-1.969604187E0,1.916485362E1
1.047229950E1,-3.237767029E0,-1.702813980E1,1.067280579E-1,1.733355334E1
1.048227350E1,-4.703818359E0,-1.535776337E1,8.452922058E-1,1.608419478E1
1.049224750E1,-4.780009918E0,-1.276216095E1,5.019062805E-1,1.363719754E1
1.050222150E1,-3.152893524E0,-1.022209305E1,2.701881409E-1,1.070069743E1
1.051219550E1,-8.171507263E-1,-8.795858917E0,-5.313949585E-2,8.833894566E0
1.052216950E1,1.379231873E0,-7.040758667E0,-1.655557251E-1,7.176487432E0
1.053214350E1,2.412682800E0,-5.081483002E0,-9.265731812E-2,5.625930427E0
1.054211650E1,2.752775574E0,-3.204835510E0,2.177970886E-1,4.230387639E0
1.055209050E1,2.647095337E0,-1.100960541E0,7.812254333E-1,2.971454360E0
1.056206450E1,2.312391357E0,8.229885864E-1,1.073118439E0,2.678814511E0
1.057203850E1,2.067650299E0,2.375559998E0,1.043929138E0,3.317868458E0
1.058201250E1,1.944905548E0,3.276536407E0,1.060993652E0,3.955256749E0
1.059198650E1,1.971250763E0,3.601360931E0,1.232536926E0,4.286581086E0
1.060196050E1,2.103575592E0,3.490740967E0,1.296304321E0,4.276763690E0
1.061193450E1,2.251767426E0,2.888243866E0,1.175355835E0,3.846280087E0
1.062190850E1,2.399210815E0,1.959125977E0,1.201701050E0,3.322419682E0
1.063188250E1,2.441423035E0,1.093326416E0,1.480271759E0,3.057304952E0
1.064185650E1,2.261646881E0,1.748364258E-1,1.770218811E0,2.877375372E0
1.065183050E1,2.075134735E0,-1.210382996E0,2.198478241E0,3.256457852E0
1.066180350E1,2.127825165E0,-3.263812866E0,2.764451294E0,4.777269651E0
1.067177750E1,2.213297424E0,-6.022126923E0,3.156186676E0,7.150259610E0
1.068175150E1,2.195334778E0,-8.331225128E0,3.062032471E0,9.143568766E0
1.069172550E1,2.034718781E0,-1.030382309E1,2.941832428E0,1.090702658E1
1.070169950E1,1.996697845E0,-1.293744644E1,3.238814850E0,1.348533442E1
1.071167350E1,2.273771667E0,-1.651650375E1,3.586541748E0,1.705368627E1
1.072164750E1,2.539020081E0,-2.118230118E1,3.899241486E0,2.168733710E1
1.073162150E1,2.310146027E0,-2.633039566E1,4.299658813E0,2.677897638E1
1.074159550E1,1.537901917E0,-3.009596512E1,4.585264893E0,3.048207527E1
1.075156950E1,6.620732117E-1,-2.858934814E1,3.627556458E0,2.882617446E1
1.076154350E1,-7.821235657E-1,-1.975936020E1,1.175056458E0,1.980971455E1
1.077151650E1,-1.041534119E0,-1.587014786E1,-1.225202179E0,1.595141081E1
1.078149050E1,8.876541138E-2,-1.206176743E1,-4.690795441E0,1.294208927E1
1.079146450E1,1.197509766E0,-7.719597015E0,-1.138427628E1,1.380680825E1
1.080143850E1,1.221459961E-1,-3.800297241E0,-1.788480835E1,1.828451663E1
1.081141250E1,-1.097966766E0,-2.580633545E0,-1.445169754E1,1.472130301E1
1.082138650E1,-4.071533203E-1,-3.310665436E0,-6.953041077E0,7.711748159E0
1.083136050E1,4.673281860E-1,-3.476670227E0,-1.611249390E0,3.860279277E0
1.084133450E1,1.501677246E0,-3.148702240E0,2.614912262E0,4.359716331E0
1.085130850E1,1.938468933E0,-3.595672760E0,4.822072449E0,6.319723657E0
1.086128250E1,2.190993805E0,-3.993545380E0,5.452261963E0,7.104647709E0
1.087125650E1,3.207230530E0,-4.279001770E0,4.380939789E0,6.912945628E0
1.088123050E1,3.254382477E0,-4.656965790E0,3.430266724E0,6.636645649E0
1.089120350E1,2.505938873E0,-4.918921051E0,2.808908844E0,6.193987636E0
1.090117750E1,1.974244537E0,-5.125042419E0,1.793570251E0,5.777594269E0
1.091115150E1,1.466799774E0,-5.041815491E0,1.067280579E0,5.358217320E0
1.092112550E1,1.015937347E0,-4.945116577E0,9.913883972E-1,5.144818521E0
1.093109950E1,8.147557068E-1,-4.562362518E0,1.454525299E0,4.857429614E0
1.094107350E1,8.628057861E-1,-4.048331451E0,2.215393066E0,4.694825641E0
1.095104750E1,9.722282410E-1,-3.809577942E0,2.631976776E0,4.731322606E0
1.096102150E1,1.102158051E0,-3.485352173E0,2.704875183E0,4.547392868E0
1.097099550E1,1.353335724E0,-2.866688690E0,2.756068726E0,4.200635243E0
1.098096950E1,1.624871063E0,-2.505190430E0,2.684068451E0,4.015022853E0
1.099094350E1,1.849853210E0,-3.109783173E0,2.621199188E0,4.468041346E0
1.100091650E1,2.107766876E0,-4.395309906E0,2.739602966E0,5.591677279E0
1.101089050E1,2.025587769E0,-6.569089508E0,2.948867798E0,7.480091180E0
1.102086421E1,1.244062958E0,-1.008797195E1,3.404669952E0,1.071945186E1
1.103083821E1,7.003935242E-1,-1.383153717E1,3.763324127E0,1.435146613E1
1.104081221E1,4.632865906E-1,-1.718501358E1,3.654350739E0,1.757536929E1
1.105078621E1,3.583547974E-1,-1.997745667E1,3.127745819E0,2.022399532E1
1.106076021E1,6.617738342E-1,-2.189287354E1,2.375859375E0,2.203135411E1
1.107073421E1,1.359323273E0,-2.273951294E1,2.070195007E0,2.287397901E1
1.108070821E1,1.796264648E0,-2.408656174E1,2.373913422E0,2.426982670E1
1.109068221E1,1.919907532E0,-2.587309662E1,3.001857605E0,2.611731844E1
1.110065621E1,2.277064819E0,-2.729738480E1,3.382516022E0,2.760024738E1
1.111063021E1,2.666704559E0,-2.861015488E1,3.560346222E0,2.895390026E1
1.112060321E1,3.067720642E0,-2.967578888E1,3.779640198E0,3.007239657E1
1.113057721E1,3.683390350E0,-2.982218445E1,3.969295807E0,3.030982281E1
1.114055121E1,4.731061707E0,-2.921579544E1,4.265230408E0,2.990213769E1
1.115052521E1,5.994584198E0,-2.781440964E1,4.622238007E0,2.882605605E1
1.116049921E1,6.089786224E0,-2.687541229E1,5.404361572E0,2.808167385E1
1.117047321E1,4.984784088E0,-2.621723099E1,6.089187469E0,2.737278716E1
1.118044721E1,3.667373657E0,-2.488739639E1,5.667963409E0,2.578677836E1
1.119042121E1,2.315834198E0,-2.381188293E1,4.149670715E0,2.428144608E1
1.120039521E1,9.780661011E-1,-2.280223251E1,1.998643799E0,2.291054338E1
1.121036921E1,-8.134085083E-1,-2.074595856E1,-8.020321655E-1,2.077738399E1
1.122034321E1,-3.025658112E0,-1.793809753E1,-4.289779358E0,1.869042956E1
1.123031721E1,-3.330424347E0,-1.513218246E1,-6.308631134E0,1.672942017E1
1.124029021E1,-1.353335724E0,-1.245230530E1,-5.145998840E0,1.354151871E1
1.125026421E1,3.219804382E-1,-9.870174866E0,-2.473157043E0,1.018039926E1
1.126023821E1,1.358125763E0,-6.679709473E0,-1.722917175E-1,6.818556201E0
1.127021221E1,1.627116394E0,-3.324137421E0,1.344653778E0,3.937701250E0
1.128018621E1,1.462159424E0,-2.008822632E-1,2.299368439E0,2.732280930E0
1.129016021E1,1.646875305E0,2.774181061E0,2.678979034E0,4.193472010E0
1.130013421E1,2.174078979E0,5.343887329E0,2.547702026E0,6.306705702E0
1.131010821E1,2.384691010E0,7.342381439E0,2.159559174E0,8.016296666E0
1.132008221E1,2.255210266E0,8.856033783E0,1.998194733E0,9.354575880E0
1.133005621E1,2.206411743E0,9.653275909E0,1.881287842E0,1.007934683E1
1.134003021E1,3.013084259E0,9.400152283E0,1.430874481E0,9.974414342E0
1.135000321E1,3.976181488E0,8.217162323E0,8.631051636E-1,9.169336202E0
1.135997721E1,4.481979675E0,6.936275940E0,6.325845337E-1,8.282525516E0
1.136995121E1,4.321064301E0,5.329966278E0,1.095571747E0,6.948410945E0
1.137992521E1,3.507506104E0,3.128194885E0,2.192341003E0,5.185996662E0
1.138989921E1,2.426005096E0,8.391549683E-1,3.849844208E0,4.627200256E0
1.139987321E1,1.011746063E0,-1.097817078E0,4.989274750E0,5.207849360E0
1.140984721E1,-2.570155334E-1,-2.501298523E0,4.616849213E0,5.257171096E0
1.141982121E1,-8.315208435E-1,-3.156785431E0,3.589236145E0,4.851735491E0
1.142979521E1,-8.539741516E-1,-3.275638275E0,2.335892487E0,4.112842286E0
1.143976921E1,-2.510279846E-1,-2.957250366E0,1.119222565E0,3.171908562E0
1.144974321E1,3.956272888E-1,-2.288441162E0,6.596781921E-1,2.414261631E0
1.145971721E1,4.146377563E-1,-1.828747101E0,4.333488464E-1,1.924586098E0
1.146969021E1,-3.921844482E-2,-1.316063232E0,-3.188369751E-1,1.354702010E0
1.147966421E1,-6.503974915E-1,-7.243437195E-1,-1.919458466E0,2.152210845E0
1.148963821E1,-8.358618164E-1,-1.157093811E-1,-3.213068390E0,3.322026808E0
1.149961221E1,-6.542893982E-1,3.372486877E-1,-3.310066681E0,3.390925055E0
1.150958621E1,-3.050656128E-1,5.248086548E-1,-2.911894684E0,2.974494882E0
1.151956021E1,9.460327148E-2,6.283932495E-1,-2.472408600E0,2.552769504E0
1.152953421E1,4.221221924E-1,7.285350037E-1,-2.209854584E0,2.364827198E0
1.153950821E1,5.514532471E-1,8.765771484E-1,-2.183509369E0,2.416650853E0
1.154948221E1,4.424798584E-1,1.162781982E0,-2.233804779E0,2.556899324E0
1.155945621E1,2.962339783E-1,1.489702148E0,-1.973945160E0,2.490667893E0
1.156943021E1,4.534071350E-1,1.423539734E0,-7.833210754E-1,1.686901097E0
1.157940421E1,1.239422607E0,7.879614258E-1,9.650431824E-1,1.757373026E0
1.158937721E1,2.251767426E0,-3.210823059E-1,1.939965820E0,2.989484532E0
1.159935121E1,3.563190308E0,-1.397194519E0,2.345173187E0,4.488687444E0
1.160932521E1,5.263205109E0,-2.646945648E0,3.340303802E0,6.772390920E0
1.161929921E1,6.824009399E0,-4.737648010E0,4.227957916E0,9.321375494E0
1.162927321E1,7.542515259E0,-8.948092346E0,4.336033173E0,1.248034762E1
1.163924721E1,7.215445404E0,-1.420441177E1,2.154170380E0,1.607695295E1
1.164922121E1,6.033054199E0,-2.007610153E1,-5.673202515E-2,2.096308217E1
1.165919521E1,3.848347321E0,-3.109962799E1,2.137704620E0,3.140965487E1
1.166916921E1,1.502874756E-1,-4.797104370E1,6.722670135E0,4.844004453E1
1.167914321E1,-2.085014191E0,-5.317182861E1,1.044348267E1,5.422782471E1
1.168911721E1,-2.833607483E-1,-4.815231674E1,7.381001129E0,4.871555274E1
1.169909021E1,1.967209167E0,-3.687626541E1,4.982838135E0,3.726335383E1
1.170906421E1,1.162183228E0,-2.845956802E1,3.928430786E0,2.875291725E1
1.171903821E1,1.249601440E0,-2.535637115E1,3.370690613E0,2.560993200E1
1.172901221E1,4.306544495E0,-2.030033524E1,2.153871002E0,2.086358302E1
1.173898621E1,5.273833008E0,-1.891855865E1,1.790127411E0,1.972130149E1
1.174896021E1,4.815486145E0,-2.052471863E1,1.054557037E0,2.110841235E1
1.175893421E1,3.784430237E0,-2.193313980E1,-3.312611389E-1,2.225970053E1
1.176890821E1,1.626218262E0,-2.220063354E1,-1.604363708E0,2.231785605E1
1.177888221E1,-6.002517700E-1,-2.122615997E1,-2.815046082E0,2.142042609E1
1.178885621E1,-1.890718231E0,-1.948752548E1,-3.174897766E0,1.983477856E1
1.179883021E1,-2.351460114E0,-1.736778351E1,-3.627556458E0,1.789772149E1
1.180880421E1,-1.750759277E0,-1.480765732E1,-5.915398865E0,1.604131594E1
1.181877721E1,-5.448669434E-2,-1.252445526E1,-6.548881531E0,1.413339300E1
1.182875121E1,1.036295013E0,-1.123653351E1,-4.076622620E0,1.199801836E1
1.183872521E1,1.665885773E0,-9.770182800E0,-1.581461334E0,1.003656651E1
1.184869921E1,2.170785828E0,-7.787106628E0,4.381388855E-1,8.095882067E0
1.185867321E1,2.473755798E0,-5.818250885E0,2.021995239E0,6.637768892E0
1.186864721E1,2.688259735E0,-3.939208374E0,2.879412231E0,5.570917143E0
1.187862121E1,2.688259735E0,-2.423460388E0,3.137176208E0,4.789757324E0
1.188859521E1,2.601140900E0,-8.168513489E-1,3.126248932E0,4.148085401E0
1.189856921E1,2.521656189E0,6.727011108E-1,2.671344910E0,3.734616493E0
1.190854321E1,2.574945374E0,1.684596863E0,2.168540497E0,3.764409403E0
1.191851721E1,2.546205139E0,2.367476807E0,2.010020142E0,4.016003985E0
1.192849121E1,2.519859924E0,2.774630127E0,1.757046204E0,4.139502113E0
1.193846421E1,2.615960083E0,2.922971649E0,1.467398529E0,4.188110417E0
1.194843821E1,2.608026581E0,2.822979584E0,1.416354675E0,4.095983025E0
1.195841221E1,2.522853699E0,2.415975952E0,1.595232697E0,3.840116918E0
1.196838621E1,2.273771667E0,1.530716858E0,1.602118378E0,3.174888186E0
1.197836021E1,2.078427887E0,1.080752563E-1,1.779200134E0,2.738082515E0
1.198833421E1,1.930086365E0,-1.506167908E0,2.106569366E0,3.229769285E0
1.199830821E1,1.708547058E0,-3.441792755E0,2.248174896E0,4.451894067E0
1.200828221E1,1.374142456E0,-5.784720612E0,2.412832489E0,6.416620658E0
1.201825638E1,9.593550110E-1,-8.009993134E0,2.534080353E0,8.455880514E0
1.202823037E1,7.429051208E-1,-1.026834686E1,2.824626160E0,1.067564369E1
1.203820437E1,8.002359009E-1,-1.307695633E1,3.045117645E0,1.345064704E1
1.204817737E1,1.071771240E0,-1.648521881E1,2.935844879E0,1.677886522E1
1.205815138E1,1.134041748E0,-2.044104263E1,3.098556519E0,2.070563515E1
1.206812538E1,8.238867188E-1,-2.504561737E1,3.969445496E0,2.537160295E1
1.207809937E1,3.323089600E-1,-2.853381363E1,4.217928772E0,2.884579471E1
1.208807337E1,-2.668949890E-1,-2.744647476E1,3.087030487E0,2.762082488E1
1.209804737E1,-6.246510315E-1,-2.086780518E1,1.157243500E0,2.090920119E1
1.210802138E1,-5.875282288E-1,-1.458057953E1,-3.483256531E-1,1.459656876E1
1.211799538E1,2.555186462E-1,-1.097293167E1,-1.765279083E0,1.111695684E1
1.212796937E1,1.681902466E0,-7.727680206E0,-3.846700745E0,8.794483720E0
1.213794337E1,2.799328766E0,-5.039420471E0,-6.368656311E0,8.590214400E0
1.214791737E1,2.995420990E0,-3.198249207E0,-8.439450073E0,9.509240897E0
1.215789138E1,2.071841583E0,-1.942061462E0,-9.134005737E0,9.565259593E0
1.216786438E1,1.222058716E0,-2.423161011E0,-6.858886871E0,7.376277239E0
1.217783838E1,1.075663147E0,-3.089724884E0,-4.110302582E0,5.253383517E0
1.218781237E1,9.249266052E-1,-4.234993286E0,-2.114502869E0,4.823046728E0
1.219778637E1,1.353036346E0,-4.955145721E0,-2.950364685E-1,5.145019241E0
1.220776037E1,1.844614105E0,-5.179229736E0,1.312919769E0,5.652502117E0
1.221773438E1,2.129471741E0,-4.979694672E0,2.268981628E0,5.871991702E0
1.222770838E1,2.019899597E0,-4.330794067E0,2.941083984E0,5.611216146E0
1.223768237E1,1.604064331E0,-3.798051910E0,3.670367432E0,5.519947262E0
1.224765637E1,1.467847595E0,-3.269051971E0,4.083807678E0,5.433117200E0
1.225763037E1,1.678459625E0,-2.961890717E0,4.340074768E0,5.516001480E0
1.226760438E1,2.098785553E0,-2.485281830E0,4.131708069E0,5.258568069E0
1.227757738E1,2.579136658E0,-1.978585510E0,3.652105408E0,4.889235158E0
1.228755138E1,2.850522308E0,-1.798360291E0,3.116968231E0,4.590758992E0
1.229752537E1,2.937192078E0,-2.024989014E0,2.479294281E0,4.344488225E0
1.230749937E1,3.102149048E0,-2.708617401E0,1.908830566E0,4.539115671E0
1.231747338E1,3.552861786E0,-3.959266663E0,2.147434387E0,5.736731981E0
1.232744738E1,3.839964752E0,-5.924829254E0,2.973416748E0,7.660948906E0
1.233742138E1,3.279230804E0,-8.775052185E0,3.485651550E0,9.995231976E0
1.234739537E1,2.463277588E0,-1.200967575E1,3.196003876E0,1.266943128E1
1.235736937E1,1.513502655E0,-1.507694733E1,2.857108612E0,1.541973089E1
1.236734337E1,6.304888916E-1,-1.788510773E1,3.072211304E0,1.815800311E1
1.237731738E1,3.519181824E-1,-2.026186523E1,3.406915283E0,2.054930901E1
1.238729138E1,5.177732849E-1,-2.164603683E1,3.482059021E0,2.193042943E1
1.239726437E1,9.836045837E-1,-2.230541565E1,3.623963928E0,2.261928734E1
1.240723837E1,1.431772614E0,-2.305101517E1,3.575764160E0,2.337060894E1
1.241721237E1,1.725312195E0,-2.423400513E1,3.120411072E0,2.449491114E1
1.242718638E1,1.716181183E0,-2.532044586E1,2.595602417E0,2.551092724E1
1.243716038E1,1.494941254E0,-2.608161301E1,2.210004272E0,2.621773265E1
1.244713438E1,1.284927979E0,-2.628833313E1,1.432371368E0,2.635866435E1
1.245710837E1,1.510957947E0,-2.706117599E1,1.233435059E0,2.713137671E1
1.246708237E1,2.526446228E0,-2.763882477E1,1.737586670E0,2.780839392E1
1.247705638E1,4.446802826E0,-2.770049652E1,2.273621979E0,2.814712987E1
1.248703038E1,6.001769257E0,-2.730471954E1,2.398462372E0,2.805925098E1
1.249700438E1,6.893614655E0,-2.600542145E1,2.456691284E0,2.701553627E1
1.250697737E1,6.852450256E0,-2.469040604E1,2.305505676E0,2.572717593E1
1.251695137E1,5.586532745E0,-2.396501450E1,2.242636414E0,2.470952622E1
1.252692537E1,3.558699646E0,-2.371473495E1,2.530637512E0,2.411342206E1
1.253689938E1,1.968556366E0,-2.308529388E1,2.716251526E0,2.332775236E1
1.254687338E1,1.320254517E0,-2.152329208E1,2.718646545E0,2.173444762E1
1.255684737E1,1.075663147E0,-1.923140808E1,2.550695801E0,1.942962061E1
1.256682137E1,1.298100586E0,-1.617192032E1,1.948049011E0,1.634047022E1
1.257679537E1,1.600771179E0,-1.302890625E1,1.243314514E0,1.318562465E1
1.258676938E1,1.775457916E0,-9.866881714E0,3.558100891E-1,1.003166020E1
1.259674338E1,1.992656250E0,-6.552623749E0,-8.059240723E-1,6.896163465E0
1.260671738E1,2.314936066E0,-2.958298187E0,-2.069596252E0,4.288786052E0
1.261669137E1,2.015408936E0,3.896397400E-1,-2.656376038E0,3.357085932E0
1.262666437E1,1.201850739E0,2.934048615E0,-2.703378296E0,4.166694215E0
1.263663837E1,1.450783081E0,5.061724091E0,-2.743345184E0,5.937319691E0
1.264661238E1,2.145937500E0,6.609206085E0,-2.257455597E0,7.306350567E0
1.265658638E1,2.445764008E0,7.584877167E0,-1.352886658E0,8.083466183E0
1.266656037E1,2.640509033E0,8.031248932E0,-6.126759338E-1,8.476356479E0
1.267653437E1,2.944227448E0,7.999664612E0,1.751358032E-1,8.526064843E0
1.268650837E1,3.414399719E0,7.445367279E0,9.219328308E-1,8.242668227E0
1.269648238E1,3.929179230E0,6.320157166E0,1.759590912E0,7.647156085E0
1.270645638E1,4.305197296E0,4.837041321E0,3.300785980E0,7.268210274E0
1.271643037E1,3.521726532E0,3.080593872E0,5.749693451E0,7.412934045E0
1.272640437E1,1.700314178E0,1.548829193E0,6.840774536E0,7.217072566E0
1.273637837E1,8.003855896E-1,6.230044556E-1,7.535928955E0,7.603879067E0
1.274635138E1,-2.544708252E-2,-4.420307922E-1,7.032525787E0,7.046450009E0
1.275632538E1,-6.457571411E-1,-1.512005768E0,4.879253540E0,5.148813342E0
1.276629938E1,-4.932243347E-1,-2.154020691E0,3.245550842E0,3.926407474E0
1.277627337E1,1.212478638E-1,-2.400108948E0,2.118993530E0,3.203959673E0
1.278624737E1,7.086264038E-1,-2.373015289E0,1.507964172E0,2.899535978E0
1.279622137E1,1.354682922E0,-2.171534271E0,1.038240967E0,2.762004927E0
1.280619538E1,1.912722473E0,-1.632205811E0,1.856140137E-2,2.514547194E0
1.281616938E1,1.956281891E0,-9.132508850E-1,-1.670077057E0,2.729509735E0
1.282614337E1,1.596879272E0,-3.486250305E-1,-3.320245514E0,3.700755747E0
1.283611737E1,1.056952057E0,1.493893433E-1,-4.365671539E0,4.494280011E0
1.284609137E1,5.068460083E-1,6.789880371E-1,-4.658462677E0,4.734890933E0
1.285606438E1,-1.841171265E-2,8.744815063E-1,-4.472998352E0,4.557715563E0
1.286603838E1,-5.944139099E-1,7.273374939E-1,-3.943399658E0,4.053732674E0
1.287601237E1,-1.060694275E0,4.805007935E-1,-3.366349640E0,3.562058851E0
1.288598637E1,-1.380279694E0,2.324665833E-1,-2.768792267E0,3.102486642E0
1.289596037E1,-1.543440399E0,1.402583313E-1,-1.758543091E0,2.344003939E0
1.290593438E1,-1.503623199E0,1.326242065E-1,-5.508544922E-1,1.606833090E0
1.291590838E1,-1.089883575E0,2.404000854E-1,7.511380005E-1,1.345305432E0
1.292588238E1,-4.763095093E-1,2.977308655E-1,1.966610413E0,2.045255713E0
1.293585637E1,8.202941895E-2,-1.077758789E-1,2.043251038E0,2.047735156E0
1.294583037E1,1.310824127E0,-9.297166443E-1,1.504371643E0,2.201310285E0
1.295580438E1,2.727627869E0,-2.457439728E0,2.142494659E0,4.250793711E0
1.296577838E1,3.806284790E0,-5.565426636E0,3.335064697E0,7.522262564E0
1.297575138E1,4.578977966E0,-9.317075043E0,4.097429352E0,1.116081780E1
1.298572537E1,5.666466522E0,-1.289852737E1,4.360582123E0,1.474772958E1
1.299569937E1,6.538553009E0,-1.984213806E1,4.455185394E0,2.136145583E1
1.300567337E1,4.661007385E0,-3.337893814E1,5.410199432E0,3.413427543E1
1.301564738E1,3.044518890E0,-5.595618851E1,6.208938446E0,5.638186804E1
1.302562087E1,2.694995728E0,-7.007078705E1,6.759942627E0,7.044767579E1
1.303559487E1,5.860912170E0,-6.001963852E1,5.453010406E0,6.055115707E1
1.304556888E1,4.749024353E0,-3.318628876E1,2.072739716E0,3.358837959E1
1.305554288E1,1.891616364E0,-2.404704391E1,2.599943390E0,2.426104365E1
1.306551687E1,1.342408447E0,-2.033551208E1,2.611768799E0,2.054644613E1
1.307549087E1,3.670816498E0,-1.786055878E1,1.586101685E0,1.830273674E1
1.308546487E1,8.192164307E0,-1.598600693E1,2.275268555E-2,1.796286423E1
1.309543788E1,1.167901337E1,-1.627475647E1,-1.408421173E0,2.008110310E1
1.310541188E1,9.874815216E0,-1.799018921E1,-2.097737732E0,2.062909079E1
1.311538588E1,5.677244110E0,-1.773781403E1,-2.280058594E0,1.876325703E1
1.312535987E1,1.580862579E0,-1.717618195E1,-2.299368439E0,1.740136339E1
1.313533387E1,-3.704346771E0,-1.719399490E1,-3.716022491E0,1.797677582E1
1.314530788E1,-7.425458679E0,-1.693248871E1,-7.313790894E0,1.988311212E1
1.315528188E1,-5.840255127E0,-1.610875168E1,-1.039139099E1,2.003949768E1
1.316525588E1,-3.623963928E-1,-1.379052246E1,-9.377698975E0,1.668085966E1
1.317522987E1,2.034120026E0,-1.149564468E1,-5.303022308E0,1.282222822E1
1.318520387E1,2.017654266E0,-9.205556946E0,-1.613345032E0,9.561176163E0
1.319517787E1,2.001188507E0,-7.221432953E0,8.164022827E-1,7.537928231E0
1.320515088E1,1.996398468E0,-5.089865570E0,2.116299133E0,5.862683719E0
1.321512488E1,2.171534271E0,-3.054248657E0,3.206631775E0,4.932188489E0
1.322509887E1,2.286944275E0,-1.409019928E0,3.881278839E0,4.720145835E0
1.323507287E1,2.628533936E0,9.684860229E-2,3.776646423E0,4.602350324E0
1.324504687E1,3.032394104E0,1.159937897E0,2.987038422E0,4.411719445E0
1.325502088E1,2.829865265E0,1.746567993E0,2.793041840E0,4.342777900E0
1.326499488E1,2.365979919E0,2.024839325E0,2.751578064E0,4.155600692E0
1.327496888E1,2.011367340E0,1.950144653E0,2.798879700E0,3.960099787E0
1.328494287E1,1.920057220E0,1.628313904E0,3.638334045E0,4.424420925E0
1.329491687E1,1.900447998E0,1.351240082E0,4.564308472E0,5.125472093E0
1.330489088E1,1.585951996E0,1.084045715E0,4.738995209E0,5.113557904E0
1.331486388E1,1.156345367E0,6.506968689E-1,4.356989594E0,4.554547106E0
1.332483788E1,7.379653931E-1,-1.007854156E0,3.400778046E0,3.622934479E0
1.333481187E1,7.460485840E-1,-3.917952576E0,2.921325073E0,4.943792174E0
1.334478587E1,9.979747009E-1,-6.402785339E0,2.394420776E0,6.908318497E0
1.335475987E1,1.380429382E0,-9.006920013E0,1.863175507E0,9.300624515E0
1.336473388E1,1.653760986E0,-1.201701050E1,1.419647827E0,1.221306131E1
1.337470788E1,1.696721649E0,-1.522094788E1,1.141825562E0,1.535773044E1
1.338468187E1,1.467548218E0,-1.795905396E1,9.562115479E-1,1.804426937E1
1.339465587E1,1.328487396E0,-1.950024902E1,9.699829102E-1,1.956950325E1
1.340462987E1,1.344204712E0,-1.947584976E1,1.009500732E0,1.954826596E1
1.341460388E1,1.270258484E0,-1.851245316E1,6.821315002E-1,1.856851588E1
1.342457788E1,6.412664795E-1,-1.752810013E1,-6.571334839E-2,1.753994969E1
1.343455088E1,-3.965254211E-1,-1.624706406E1,-9.526190186E-1,1.627979748E1
1.344452487E1,-1.341809692E0,-1.472742416E1,-1.654958496E0,1.488073800E1
1.345449887E1,-1.669029236E0,-1.331391357E1,-1.966460724E0,1.356144981E1
1.346447287E1,-1.180445251E0,-1.193632828E1,-2.139949951E0,1.218395541E1
1.347444688E1,-4.378395081E-1,-1.075962524E1,-2.235750732E0,1.099817349E1
1.348442088E1,1.336720276E-1,-9.697883148E0,-2.363584900E0,9.982651920E0
1.349439487E1,6.219566345E-1,-8.894653473E0,-2.323618011E0,9.214167956E0
1.350436887E1,1.251846771E0,-8.206684113E0,-1.668131104E0,8.467552530E0
1.351434287E1,1.885778503E0,-7.139702911E0,-9.238787842E-1,7.442114635E0
1.352431688E1,2.121987305E0,-6.364914093E0,-2.465373230E-1,6.713847048E0
1.353429088E1,2.062860260E0,-5.697152710E0,2.677931213E-1,6.065035417E0
1.354426387E1,1.916165314E0,-5.112618256E0,6.923103333E-1,5.503621402E0
1.355423787E1,1.751807098E0,-4.443060608E0,1.068478088E0,4.894002564E0
1.356421187E1,1.552571411E0,-3.735482025E0,1.282233582E0,4.243633691E0
1.357418588E1,1.379980316E0,-3.059487762E0,1.421593781E0,3.644960894E0
1.358415988E1,1.413211212E0,-2.434687042E0,1.545985107E0,3.211687543E0
1.359413388E1,1.528770905E0,-1.891915741E0,1.653611298E0,2.941243950E0
1.360410787E1,1.637444916E0,-1.335223389E0,1.826052704E0,2.792582287E0
1.361408187E1,1.816921692E0,-6.643185425E-1,2.026336212E0,2.801528512E0
1.362405587E1,1.982178040E0,-1.148112488E-1,2.320923615E0,3.054324447E0
1.363402988E1,2.042801971E0,3.155438232E-1,2.594554596E0,3.317276194E0
1.364400388E1,2.124681702E0,6.442602539E-1,2.784509583E0,3.561297127E0
1.365397787E1,2.456541595E0,9.202862549E-1,2.486479340E0,3.614429818E0
1.366395087E1,2.982398071E0,7.749385071E-1,2.045196991E0,3.698385956E0
1.367392487E1,3.419339447E0,-4.508624268E-1,1.896256714E0,3.935854254E0
1.368389888E1,3.550466766E0,-2.889441376E0,2.054627380E0,5.017587009E0
1.369387288E1,3.402274933E0,-6.000122681E0,2.242337036E0,7.252931979E0
1.370384687E1,2.951412506E0,-9.406738586E0,2.444566498E0,1.015743432E1
1.371382087E1,2.045945435E0,-1.325807968E1,2.850222931E0,1.371445735E1
1.372379487E1,1.065035248E0,-1.754411682E1,3.107088776E0,1.784893094E1
1.373376888E1,-4.257147217E-1,-2.217548584E1,2.400707703E0,2.230911927E1
1.374374288E1,-1.313817902E0,-2.811288895E1,3.486699371E0,2.835873260E1
1.375371688E1,-1.746118927E0,-3.372262344E1,4.203858032E0,3.402846875E1
1.376369087E1,-1.264869690E0,-3.558085922E1,3.422333221E0,3.576744054E1
1.377366387E1,3.318598938E-1,-3.444277588E1,2.924169159E0,3.456827601E1
1.378363787E1,1.691931610E0,-3.324242203E1,2.830314331E0,3.340556741E1
1.379361188E1,3.627107391E0,-3.205104950E1,2.644550629E0,3.236385839E1
1.380358588E1,6.686894531E0,-3.034983719E1,1.693129120E0,3.112384716E1
1.381355987E1,1.004980133E1,-2.934362961E1,2.760260010E-1,3.101811238E1
1.382353387E1,1.263956589E1,-2.982622604E1,-8.424481201E-1,3.240481607E1
1.383350787E1,1.290975403E1,-3.035148376E1,-1.192570038E0,3.300449271E1
1.384348188E1,9.460776215E0,-2.979883301E1,-7.107220459E-1,3.127270153E1
1.385345588E1,3.913910980E0,-2.742207550E1,2.851570129E-1,2.770144831E1
1.386342987E1,-7.622149658E-1,-2.663306625E1,1.125060425E0,2.666771364E1
1.387340387E1,-2.302811279E0,-2.624013336E1,1.228944397E0,2.636963866E1
1.388337787E1,-1.779649200E0,-2.299263657E1,7.447013855E-1,2.307342774E1
1.389335088E1,-1.837878113E0,-1.883114044E1,4.698728943E-1,1.892644781E1
1.390332488E1,-2.045346680E0,-1.390233994E1,-3.248245239E-1,1.405574650E1
1.391329888E1,-1.798959045E0,-9.386530609E0,-1.008003845E0,9.610373680E0
1.392327287E1,-1.294358368E0,-5.459297333E0,-1.373244324E0,5.776252325E0
1.393324687E1,-1.420845337E0,-1.765877838E0,-1.633702698E0,2.793941752E0
1.394322087E1,-1.400787048E0,1.589394836E0,-1.457519073E0,2.571525258E0
1.395319488E1,-2.915936279E-1,4.695435791E0,-3.246748352E-1,4.715671517E0
1.396316888E1,7.198530579E-1,7.213798828E0,1.093027039E0,7.331561230E0
1.397314287E1,1.168021088E0,8.494834900E0,2.402803345E0,8.905052338E0
1.398311687E1,1.753004608E0,9.013057251E0,3.173251190E0,9.714821114E0
1.399309087E1,3.772006073E0,9.188941498E0,3.770359497E0,1.062451347E1
1.400306388E1,6.550528107E0,9.201814728E0,4.724924469E0,1.224368098E1
1.401303788E1,8.976383514E0,8.828491058E0,6.303092651E0,1.408001038E1
1.402301233E1,1.024095383E1,8.116870880E0,7.863298187E0,1.525097330E1
1.403298633E1,9.229207764E0,6.777456207E0,6.267616425E0,1.305355140E1
1.404296033E1,5.738167419E0,4.484075317E0,4.231400757E0,8.422484737E0
1.405293433E1,2.808459778E0,1.428629150E0,3.182082825E0,4.478178053E0
1.406290833E1,1.703307953E0,-6.406677246E-1,1.586101685E0,2.414007388E0
1.407288233E1,1.254541168E0,-9.012757874E-1,2.859054565E-1,1.570959426E0
1.408285633E1,1.131047974E0,-1.223256226E0,-5.295986938E-1,1.748170498E0
1.409283033E1,1.135239258E0,-2.204465790E0,-6.032455444E-1,2.551929227E0
1.410280433E1,1.254391479E0,-2.815644836E0,-3.005749512E-1,3.097046840E0
1.411277733E1,1.261726227E0,-3.011437683E0,-5.198689270E-1,3.306202307E0
1.412275133E1,6.695576477E-1,-3.184328156E0,-1.525477753E0,3.593791260E0
1.413272533E1,-2.568658447E-1,-3.238365784E0,-2.848875732E0,4.320773768E0
1.414269933E1,-8.156538391E-1,-3.071911926E0,-3.998185730E0,5.107584870E0
1.415267333E1,-9.888436890E-1,-2.609972534E0,-4.243076477E0,5.078726854E0
1.416264733E1,-9.699829102E-1,-1.945504303E0,-3.602408752E0,4.207517398E0
1.417262133E1,-7.128176880E-1,-7.514373779E-1,-3.024011536E0,3.196468826E0
1.418259533E1,-3.010240173E-1,-2.531236267E-1,-2.230960693E0,2.265363689E0
1.419256933E1,-1.886077881E-2,1.002914429E-1,-1.382375336E0,1.386136960E0
1.420254333E1,-5.119354248E-2,5.625302124E-1,-5.536985779E-1,7.909760640E-1
1.421251733E1,-2.423460388E-1,8.801696777E-1,3.848497009E-1,9.907267819E-1
1.422249133E1,-4.528083801E-1,1.219364319E0,1.154698792E0,1.739314253E0
1.423246433E1,-5.634283447E-1,1.478924561E0,1.695075073E0,2.319040504E0
1.424243833E1,-5.502557373E-1,1.545536041E0,1.651964722E0,2.328186091E0
1.425241233E1,-2.535726929E-1,1.342558136E0,1.290915527E0,1.879687303E0
1.426238633E1,4.581971741E-1,8.390052795E-1,1.174457703E0,1.514339924E0
1.427236033E1,1.385668488E0,-1.347198486E-3,9.774673462E-1,1.695736237E0
1.428233433E1,2.382595367E0,-1.240021362E0,1.332828369E0,2.998473799E0
1.429230833E1,3.698808289E0,-3.154091034E0,3.445684662E0,5.958373586E0
1.430228233E1,5.169350281E0,-5.823939056E0,4.763993225E0,9.128859727E0
1.431225633E1,6.066734161E0,-9.708660736E0,5.094655609E0,1.253071716E1
1.432223033E1,7.054979095E0,-1.537467819E1,4.897814941E0,1.761085037E1
1.433220433E1,6.285279694E0,-2.443144455E1,3.160976715E0,2.542424035E1
1.434217733E1,3.201392670E0,-4.090768204E1,5.024750977E0,4.133927294E1
1.435215133E1,-2.041903839E0,-5.735817307E1,6.302493896E0,5.773950829E1
1.436212533E1,-5.426964569E0,-5.811455017E1,3.768114166E0,5.848890126E1
1.437209933E1,-1.668729858E0,-4.114793243E1,2.694247284E0,4.126979490E1
1.438207333E1,-5.935157776E-1,-2.674024338E1,3.062032471E0,2.692153264E1
1.439204733E1,-1.266067200E0,-2.264206558E1,2.232457581E0,2.278705612E1
1.440202133E1,1.656305695E0,-1.867860764E1,1.507515106E0,1.881239840E1
1.441199533E1,6.225404205E0,-1.647503998E1,1.794767761E-1,1.761291605E1
1.442196933E1,9.551188202E0,-1.830947525E1,-1.588197327E-1,2.065156904E1
1.443194333E1,1.028855484E1,-1.980546432E1,6.655160522E-1,2.232831587E1
1.444191733E1,7.181765442E0,-2.112437164E1,9.728269958E-1,2.233300751E1
1.445189033E1,2.368973694E0,-2.170606201E1,5.851332092E-1,2.184279161E1
1.446186433E1,-1.118773499E0,-2.176758408E1,4.863386536E-1,2.180174066E1
1.447183833E1,-1.959724731E0,-2.008508286E1,1.027313690E0,2.020659416E1
1.448181233E1,-7.182064819E-1,-1.783092041E1,1.650617523E0,1.792155354E1
1.449178633E1,8.910969543E-1,-1.593346619E1,1.483265533E0,1.602714807E1
1.450176033E1,1.959874420E0,-1.388422760E1,8.414002991E-1,1.404709359E1
1.451173433E1,2.230212250E0,-1.198647400E1,4.887336731E-1,1.220197796E1
1.452170833E1,1.900148621E0,-1.021835083E1,3.761677551E-1,1.040032503E1
1.453168233E1,1.400787048E0,-8.612490234E0,2.418969727E-1,8.729015210E0
1.454165633E1,7.779322815E-1,-7.433242493E0,1.275347900E-1,7.474927271E0
1.455163033E1,2.389031982E-1,-6.375541992E0,8.322692871E-2,6.380559314E0
1.456160433E1,-1.706451416E-1,-5.250331879E0,1.466949463E-1,5.255152139E0
1.457157733E1,-2.058219910E-1,-4.098626862E0,3.153941345E-1,4.115893378E0
1.458155133E1,1.210981750E-1,-2.969524841E0,5.589376831E-1,3.024095548E0
1.459152533E1,4.793032837E-1,-1.903142395E0,8.455915833E-1,2.136985667E0
1.460149933E1,7.351213074E-1,-1.062191162E0,1.158740387E0,1.735319188E0
1.461147333E1,1.021326141E0,-5.544470215E-1,1.328936462E0,1.765386844E0
1.462144733E1,1.457369385E0,-1.847158813E-1,1.333726501E0,1.984155201E0
1.463142133E1,1.760638733E0,-2.694396973E-2,1.235979767E0,2.151329986E0
1.464139533E1,1.786085815E0,-4.894821167E-2,1.052611084E0,2.073761935E0
1.465136933E1,1.719773712E0,-2.631527710E-1,9.352551270E-1,1.975240025E0
1.466134333E1,1.654958496E0,-5.960604858E-1,9.385482788E-1,1.993752391E0
1.467131733E1,1.643582153E0,-9.611512756E-1,1.354533234E0,2.336650241E0
1.468129033E1,1.696871338E0,-1.656156006E0,1.865570526E0,3.017047968E0
1.469126433E1,1.582060089E0,-2.881208496E0,2.072440338E0,3.885779906E0
1.470123833E1,1.395697632E0,-3.999083862E0,1.908830566E0,4.645888263E0
1.471121233E1,1.197809143E0,-5.383255463E0,1.702559509E0,5.771732409E0
1.472118633E1,1.065184937E0,-7.225474548E0,1.630858612E0,7.483435121E0
1.473116033E1,9.630972290E-1,-9.394015045E0,1.655856628E0,9.587332065E0
1.474113433E1,7.812254333E-1,-1.175475586E1,1.579216003E0,1.188606418E1
1.475110833E1,5.327421570E-1,-1.426353882E1,1.460812225E0,1.434804259E1
1.476108233E1,2.148033142E-1,-1.669672897E1,1.312321014E0,1.674959956E1
1.477105633E1,-3.231779480E-1,-1.821936264E1,1.154848480E0,1.825878676E1
1.478103033E1,-1.313967590E0,-1.931029404E1,1.393003235E0,1.940501030E1
1.479100333E1,-2.596051483E0,-2.030287994E1,1.434317322E0,2.051837429E1
1.480097733E1,-3.481011200E0,-1.963601669E1,5.550457764E-1,1.994990392E1
1.481095133E1,-3.294049988E0,-1.670870407E1,-8.153544617E-1,1.704981994E1
1.482092533E1,-2.098186798E0,-1.350087479E1,-2.097737732E0,1.382304277E1
1.483089933E1,-1.005010071E0,-1.168769531E1,-3.129991150E0,1.214121541E1
1.484087333E1,-1.914518738E-1,-1.046234344E1,-3.926035767E0,1.117636081E1
1.485084733E1,3.035687256E-1,-9.358239441E0,-4.105213165E0,1.022357934E1
1.486082133E1,4.824467468E-1,-8.531957703E0,-3.581152954E0,9.265619978E0
1.487079533E1,5.854325867E-1,-7.836054840E0,-2.573747864E0,8.268655564E0
1.488076933E1,7.071295166E-1,-7.097490692E0,-1.457219696E0,7.279965352E0
1.489074333E1,7.695497131E-1,-6.365363159E0,-4.578977966E-1,6.428042105E0
1.490071633E1,8.481362915E-1,-5.596711578E0,4.495152283E-1,5.678431086E0
1.491069033E1,9.951306152E-1,-4.863835602E0,1.206341400E0,5.109054832E0
1.492066433E1,1.232686615E0,-4.087549896E0,1.706601105E0,4.597832943E0
1.493063833E1,1.429227905E0,-3.316652985E0,2.073787537E0,4.164549696E0
1.494061233E1,1.613644409E0,-2.709066467E0,2.358944550E0,3.937957439E0
1.495058633E1,1.875899048E0,-2.318079529E0,2.202220459E0,3.707056095E0
1.496056033E1,2.209255829E0,-1.994003448E0,1.755100250E0,3.455030819E0
1.497053433E1,2.413281555E0,-1.535357208E0,1.468596039E0,3.215279762E0
1.498050833E1,2.436034241E0,-1.119671631E0,1.441203003E0,3.043845180E0
1.499048233E1,2.297272797E0,-6.578819275E-1,1.336121521E0,2.737789556E0
1.500045633E1,2.115850067E0,-3.052153015E-1,1.016087036E0,2.366941223E0
1.501043033E1,1.962568817E0,-6.571334839E-2,5.063969421E-1,2.027913329E0
1.502040333E1,1.694626007E0,5.987548828E-2,2.300715637E-1,1.711220413E0
1.503037733E1,1.511257324E0,-2.179467773E-1,4.411326599E-1,1.589338706E0
1.504035133E1,1.877246246E0,-1.282682648E0,1.234482880E0,2.587136684E0
1.505032533E1,2.888243866E0,-3.086731110E0,1.762584686E0,4.580018160E0
1.506029933E1,3.509601746E0,-5.566324768E0,1.934127960E0,6.858726325E0
1.507027333E1,3.387755127E0,-8.478219452E0,2.218087463E0,9.395584169E0
1.508024733E1,2.680775299E0,-1.142184814E1,2.839295654E0,1.207090597E1
1.509022133E1,1.375040588E0,-1.473745331E1,3.573069763E0,1.522662452E1
1.510019533E1,-2.948867798E-1,-2.061228653E1,5.119653625E0,2.124062540E1
1.511016933E1,-1.875300293E0,-2.897329971E1,6.296955414E0,2.970892955E1
1.512014333E1,-3.155288544E0,-3.770778625E1,5.997428284E0,3.831190593E1
1.513011633E1,-3.187920685E0,-4.218841873E1,4.581672363E0,4.255604816E1
1.514009033E1,-1.487307129E0,-3.802452759E1,3.007845154E0,3.817229248E1
1.515006433E1,3.025209045E-1,-3.363041519E1,2.630330200E0,3.373447764E1
1.516003833E1,2.120939484E0,-3.108585663E1,2.794538727E0,3.128319538E1
1.517001233E1,4.524341583E0,-2.993969009E1,3.128793640E0,3.044082882E1
1.517998633E1,7.234904938E0,-2.874247971E1,2.720742188E0,2.976367630E1
1.518996033E1,9.643097076E0,-2.814986206E1,2.299218750E0,2.984443771E1
1.519993433E1,1.052835617E1,-2.750365585E1,2.257455597E0,2.953630774E1
1.520990833E1,7.747289429E0,-2.691283447E1,2.499053192E0,2.811701299E1
1.521988233E1,1.520088959E0,-2.633578445E1,1.886077881E-2,2.637962413E1
1.522985633E1,-4.165837097E0,-2.499277725E1,-2.090552673E0,2.542368038E1
1.523982933E1,-6.451883240E0,-2.308005478E1,-2.948269043E0,2.414555894E1
1.524980333E1,-3.816463623E0,-2.023087967E1,-2.611469421E0,2.075267836E1
1.525977733E1,6.750961304E-1,-1.713875977E1,-1.809437256E0,1.724722889E1
1.526975133E1,3.212918701E0,-1.364083374E1,-2.331551514E0,1.420673517E1
1.527972533E1,3.253783722E0,-9.160500641E0,-3.100801849E0,1.020376659E1
1.528969933E1,2.108066254E0,-4.361330566E0,-2.684367828E0,5.538138521E0
1.529967333E1,7.688012695E-1,-7.035369873E-2,-1.807191925E0,1.965183882E0
1.530964733E1,-1.121168518E-1,3.209176483E0,-6.111790466E-1,3.268780157E0
1.531962133E1,-6.915618896E-2,5.864953766E0,8.370593262E-1,5.924789749E0
1.532959533E1,3.134481812E-1,8.458011475E0,1.763632507E0,8.645612037E0
1.533956933E1,4.995112610E-1,1.011761032E1,2.599943390E0,1.045826256E1
1.534954233E1,3.376977539E-1,1.044602737E1,3.536545715E0,1.103361606E1
1.535951633E1,5.566923523E-1,1.008617569E1,3.900588684E0,1.082845504E1
1.536949033E1,1.873504028E0,9.401798859E0,5.319188690E0,1.096346694E1
1.537946433E1,4.769531708E0,8.615783386E0,9.060209198E0,1.338161226E1
1.538943833E1,6.279441833E0,7.176526337E0,1.105017105E1,1.459589669E1
1.539941233E1,5.134472809E0,3.992048492E0,9.991273041E0,1.192161059E1
1.540938633E1,2.247127075E0,1.320254517E-1,6.876999207E0,7.236029913E0
1.541936033E1,6.135740662E-1,-1.854493561E0,4.193978577E0,4.626561985E0
1.542933433E1,1.088237000E-1,-2.997516632E0,2.471061401E0,3.886269806E0
1.543930833E1,-2.424957275E-2,-3.900139618E0,1.198258209E0,4.080134779E0
1.544928233E1,2.580633545E-1,-4.192781067E0,6.947053528E-1,4.257772340E0
1.545925633E1,7.671546936E-1,-4.319118347E0,2.284249878E-1,4.392662928E0
1.546922933E1,1.157093811E0,-4.345164185E0,-5.680686951E-1,4.532330518E0
1.547920333E1,9.089099121E-1,-3.675007782E0,-2.331401825E0,4.446035751E0
1.548917733E1,5.575904846E-1,-1.957329712E0,-4.347858582E0,4.800616731E0
1.549915133E1,8.521778870E-1,8.936416626E-2,-5.497767334E0,5.564138636E0
1.550912533E1,1.406325531E0,1.332828369E0,-5.442981262E0,5.777562460E0
1.551909933E1,1.878144379E0,1.756148071E0,-4.465663605E0,5.153021811E0
1.552907333E1,1.861079865E0,1.564247131E0,-2.882705383E0,3.771004863E0
1.553904733E1,9.750723267E-1,1.057999878E0,-1.559756470E0,2.122020271E0
1.554902133E1,2.237846375E-1,7.783813477E-1,-7.824229431E-1,1.126118443E0
1.555899533E1,-6.601272583E-2,7.096742249E-1,-2.579136658E-1,7.579674428E-1
1.556896933E1,-9.355545044E-2,8.177494812E-1,7.559280396E-2,8.265477048E-1
1.557894233E1,-6.197113037E-2,9.686357117E-1,-3.203338623E-2,9.711445313E-1
1.558891633E1,2.032772827E-1,9.448352051E-1,-2.347119141E-1,9.945475861E-1
1.559889033E1,8.547225952E-1,8.017327881E-1,1.466949463E-2,1.171981814E0
1.560886433E1,1.800605621E0,5.116360474E-1,1.194216614E0,2.220384059E0
1.561883833E1,2.900967407E0,1.365161133E-1,2.088606720E0,3.577223306E0
1.562881233E1,3.688330078E0,-6.686595154E-1,2.008972321E0,4.252864223E0
1.563878633E1,4.180656281E0,-2.394420776E0,2.530936890E0,5.442130036E0
1.564876033E1,5.393434296E0,-5.061275024E0,2.902164917E0,7.945325643E0
1.565873433E1,5.975124664E0,-8.693322144E0,2.760858765E0,1.090404997E1
1.566870833E1,5.197192383E0,-1.277563293E1,3.367547150E0,1.419746384E1
1.567868233E1,2.663112030E0,-1.900043839E1,3.743265839E0,1.954791200E1
1.568865533E1,1.526824951E-2,-3.445744537E1,5.917195129E0,3.496182165E1
1.569862933E1,-3.296145630E0,-6.270999390E1,9.656419373E0,6.353467042E1
1.570860333E1,-5.789211273E0,-7.371630615E1,9.920320587E0,7.460577404E1
1.571857733E1,-2.026186523E0,-5.509607712E1,5.692662048E0,5.542643365E1
1.572855133E1,1.411564636E-1,-3.872926208E1,2.537672882E0,3.881256820E1
1.573852533E1,-1.537153473E0,-2.567101685E1,1.528172150E0,2.576236124E1
1.574849933E1,-7.816744995E-1,-2.168136337E1,2.564167786E0,2.184645255E1
1.575847333E1,2.871179352E0,-1.917677170E1,2.834206238E0,1.959655502E1
1.576844733E1,7.323820038E0,-1.694685883E1,1.322200470E0,1.850898641E1
1.577842133E1,8.744066620E0,-1.895568146E1,-1.616189117E0,2.093773216E1
1.578839533E1,6.770720215E0,-1.945339645E1,-4.096680908E0,2.100143043E1
1.579836933E1,3.258573761E0,-1.816517532E1,-5.434149628E0,1.923855191E1
1.580834233E1,-1.435365143E0,-1.813838104E1,-5.874084778E0,1.911978064E1
1.581831633E1,-7.296127625E0,-1.814362015E1,-8.192613373E0,2.120243722E1
1.582829033E1,-9.873018951E0,-1.609737534E1,-1.215667007E1,2.245855345E1
1.583826433E1,-5.133424988E0,-1.311348038E1,-1.120973923E1,1.799926869E1
1.584823833E1,-7.635621643E-1,-1.203302719E1,-6.313421173E0,1.361014539E1
1.585821233E1,1.362317047E0,-1.040396484E1,-1.662891998E0,1.062372825E1
1.586818633E1,2.275268555E0,-8.275091858E0,1.694176941E0,8.747812741E0
1.587816033E1,2.833757172E0,-5.709576874E0,3.615581360E0,7.328156409E0
1.588813433E1,2.930456085E0,-3.225043488E0,4.337080994E0,6.148068795E0
1.589810833E1,2.899171143E0,-1.014739838E0,4.623585205E0,5.550894559E0
1.590808233E1,2.913690948E0,7.408094788E-1,5.114713898E0,5.932848547E0
1.591805533E1,2.880609741E0,2.273023224E0,4.939877472E0,6.153611663E0
1.592802933E1,2.743494873E0,3.262315979E0,4.633764038E0,6.296128876E0
1.593800333E1,2.446362762E0,3.672014008E0,4.281995544E0,6.148484649E0
1.594797733E1,2.160606995E0,3.929328918E0,3.625760193E0,5.766626857E0
1.595795133E1,1.913171539E0,3.750899963E0,3.051404572E0,5.200052474E0
1.596792533E1,1.659598846E0,3.210074615E0,2.866089935E0,4.612300823E0
1.597789933E1,1.423539734E0,2.656525726E0,2.842289429E0,4.142728992E0
1.598787333E1,1.038989410E0,1.892215118E0,2.716401215E0,3.469699210E0
1.599784733E1,4.556524658E-1,3.182382202E-1,2.805615692E0,2.860135337E0
1.600782133E1,3.143463135E-1,-2.142794037E0,3.106639709E0,3.787029202E0
1.601779533E1,4.463717651E-1,-4.382885742E0,2.987188110E0,5.322802644E0
1.602776821E1,6.601272583E-1,-6.544690247E0,2.566712494E0,7.060931344E0
1.603774221E1,7.575746155E-1,-9.451794891E0,2.056273956E0,9.702505272E0
1.604771621E1,4.171824646E-1,-1.373154510E1,1.452729034E0,1.381447769E1
1.605769021E1,-4.403842163E-1,-1.979992584E1,1.096320190E0,1.983514355E1
1.606766421E1,-1.085542603E0,-2.602562943E1,1.774559784E0,2.610863559E1
1.607763821E1,-8.189469910E-1,-3.037633209E1,2.549797668E0,3.049415835E1
1.608761221E1,7.274871826E-2,-3.044429077E1,2.446961517E0,3.054255644E1
1.609758621E1,5.692662048E-1,-2.513049088E1,1.308429108E0,2.517096785E1
1.610756021E1,2.409988403E-1,-1.909818512E1,-4.387376404E-1,1.910474407E1
1.611753421E1,-5.297483826E-1,-1.530133072E1,-1.941911774E0,1.543315834E1
1.612750821E1,-1.574575653E0,-1.163964523E1,-3.664978638E0,1.230417401E1
1.613748121E1,-2.900368652E0,-8.659791870E0,-6.302793274E0,1.109636592E1
1.614745521E1,-4.015250244E0,-8.516240387E0,-8.314459991E0,1.256100433E1
1.615742921E1,-3.351680145E0,-9.117839355E0,-7.773634644E0,1.244179046E1
1.616740321E1,-1.648072815E0,-9.447902985E0,-4.432582397E0,1.056535856E1
1.617737721E1,-8.349636841E-1,-9.127419434E0,-1.678759003E0,9.318003094E0
1.618735121E1,-5.456153870E-1,-8.802894287E0,-4.162843323E-1,8.829605689E0
1.619732521E1,2.365081787E-1,-7.932454376E0,8.948391724E-1,7.986269824E0
1.620729921E1,7.716453552E-1,-6.723568268E0,1.376387787E0,6.906247183E0
1.621727321E1,9.695338440E-1,-5.555846558E0,1.319955139E0,5.792211013E0
1.622724721E1,1.044228516E0,-4.468358002E0,1.228345642E0,4.750312562E0
1.623722121E1,1.074465637E0,-3.496578827E0,1.403631134E0,3.917999523E0
1.624719521E1,1.095871124E0,-2.651735687E0,1.641636200E0,3.305692830E0
1.625716821E1,1.124461670E0,-1.973945160E0,1.777852936E0,2.884724355E0
1.626714221E1,1.027912445E0,-1.593286743E0,1.874252472E0,2.666081201E0
1.627711621E1,8.253836060E-1,-1.466051331E0,2.019151154E0,2.628219165E0
1.628709021E1,8.238867188E-1,-1.297501831E0,2.186054077E0,2.672289796E0
1.629706421E1,9.900411987E-1,-1.085093536E0,2.214494934E0,2.657366623E0
1.630703821E1,1.229692841E0,-8.505313110E-1,2.260149994E0,2.709949444E0
1.631701221E1,1.582060089E0,-5.019062805E-1,2.322869568E0,2.854916298E0
1.632698621E1,1.965113525E0,-2.088157654E-1,2.374063110E0,3.088923897E0
1.633696021E1,2.328258362E0,-1.947450256E-1,2.123933258E0,3.157499819E0
1.634693421E1,2.643353119E0,-3.929328918E-1,1.713486786E0,3.174547044E0
1.635690821E1,2.850073242E0,-4.989125061E-1,1.395997009E0,3.212575108E0
1.636688221E1,2.917582855E0,-1.084644470E0,1.745520172E0,3.568695002E0
1.637685521E1,2.816542969E0,-2.604284363E0,2.621947632E0,4.646484770E0
1.638682921E1,2.828368378E0,-5.045258331E0,3.244503021E0,6.631824724E0
1.639680321E1,2.448308716E0,-8.105045471E0,3.805835724E0,9.282799320E0
1.640677721E1,1.543290710E0,-1.142738663E1,4.254752197E0,1.229104664E1
1.641675121E1,4.102967834E-1,-1.467862564E1,4.669839020E0,1.540901654E1
1.642672521E1,-5.715115356E-1,-1.772359360E1,5.432952118E0,1.854641109E1
1.643669921E1,-1.443298645E0,-2.099713623E1,6.197262726E0,2.194012092E1
1.644667321E1,-2.179018707E0,-2.476450195E1,6.317013702E0,2.565021134E1
1.645664721E1,-2.223176880E0,-2.786949509E1,4.935985565E0,2.839040728E1
1.646662121E1,-9.289682007E-1,-2.899545364E1,2.694696350E0,2.913521413E1
1.647659521E1,9.262738037E-1,-2.875161072E1,2.142344971E0,2.884619115E1
1.648656821E1,2.387834473E0,-2.914469330E1,2.855911102E0,2.938147595E1
1.649654221E1,3.177891541E0,-3.023592407E1,3.466790771E0,3.059948917E1
1.650651621E1,3.590733032E0,-3.099050491E1,3.719315643E0,3.141875343E1
1.651649021E1,3.471880188E0,-3.175062424E1,3.666475525E0,3.214963661E1
1.652646421E1,3.225642242E0,-3.230417313E1,3.603755951E0,3.266422242E1
1.653643821E1,3.418291626E0,-3.146397034E1,3.476370850E0,3.183946138E1
1.654641221E1,3.688180389E0,-2.978805542E1,3.270848236E0,3.019320070E1
1.655638621E1,4.153562622E0,-2.814237762E1,3.151845703E0,2.862131430E1
1.656636021E1,4.039499817E0,-2.620151367E1,2.982996826E0,2.667836478E1
1.657633421E1,3.153641968E0,-2.396561325E1,2.167492676E0,2.426920066E1
1.658630821E1,2.528392181E0,-2.170710983E1,1.524429932E0,2.190696855E1
1.659628221E1,2.060764618E0,-1.921599014E1,9.319619751E-1,1.934863254E1
