"Time (s)","Acceleration x (m/s^2)","Acceleration y (m/s^2)","Acceleration z (m/s^2)","Absolute acceleration (m/s^2)"
1.058875117E-3,6.298901367E-1,3.053500214E0,9.830357666E0,1.031293154E1
1.103287516E-2,2.950364685E-1,3.084186401E0,9.346114655E0,9.846273986E0
2.100687497E-2,1.185534668E-1,2.923869781E0,8.881630554E0,9.351279630E0
3.098087502E-2,1.826202393E-2,2.607278137E0,9.007518768E0,9.377293167E0
4.095487506E-2,1.233435059E-1,2.270029449E0,9.340875549E0,9.613542705E0
5.092887511E-2,3.369493103E-1,2.071242828E0,9.641450500E0,9.867175353E0
6.090287515E-2,3.462300110E-1,2.176324310E0,1.004111938E1,1.028009442E1
7.087687496E-2,4.096980286E-1,2.418520660E0,1.034977753E1,1.063649329E1
8.085087501E-2,5.219645691E-1,2.599943390E0,1.028226791E1,1.061871867E1
9.082487505E-2,6.911128235E-1,2.692001953E0,1.001447479E1,1.039298883E1
1.007988751E-1,7.500901794E-1,2.841391296E0,9.738598480E0,1.017233700E1
1.107728751E-1,4.781057739E-1,3.130889282E0,9.300908661E0,9.825373008E0
1.207468752E-1,2.507286072E-1,3.272794189E0,8.848100281E0,9.437315573E0
1.307208750E-1,3.109034729E-1,3.187621307E0,8.699459381E0,9.270285006E0
1.406948750E-1,4.415817261E-1,2.984493713E0,8.698710938E0,9.207049968E0
1.506688751E-1,6.150709534E-1,2.755769348E0,8.763975220E0,9.207596789E0
1.606428751E-1,1.077010345E0,2.753973083E0,8.715925140E0,9.203894289E0
1.706168752E-1,1.154549103E0,2.714904327E0,8.788673859E0,9.270624430E0
1.805908750E-1,1.064286804E0,2.713706818E0,8.743318176E0,9.216426847E0
1.905648750E-1,1.373992767E0,3.097359009E0,8.636739807E0,9.277648595E0
2.005388751E-1,2.104174347E0,3.855083313E0,8.827293549E0,9.859529828E0
2.105128751E-1,1.764231262E0,3.695215759E0,8.894653473E0,9.791935042E0
2.204868752E-1,1.621877289E0,3.541485443E0,8.883875885E0,9.700301842E0
2.304608750E-1,1.560055847E0,3.442391510E0,8.584199066E0,9.379355370E0
2.404348750E-1,1.455273743E0,3.280278625E0,7.960595856E0,8.732075120E0
2.504088751E-1,1.163680115E0,3.062481537E0,7.436086578E0,8.125781696E0
2.603828751E-1,7.976911926E-1,2.913840637E0,7.100783844E0,7.716729210E0
2.703568751E-1,5.168751526E-1,2.861599274E0,6.884034576E0,7.473007586E0
2.803308752E-1,4.704716492E-1,2.816542969E0,6.768923950E0,7.346603930E0
2.903048750E-1,5.267546082E-1,2.790946198E0,6.767726440E0,7.339548506E0
3.002788750E-1,4.924758911E-1,2.715054016E0,6.981481934E0,7.507006114E0
3.102538751E-1,5.523513794E-1,2.623594208E0,7.246281281E0,7.726378907E0
3.202278751E-1,1.277443542E0,2.045196991E0,8.037685547E0,8.391607813E0
3.302018752E-1,3.413052521E0,-2.677931213E-1,1.206550964E1,1.254181660E1
3.401758750E-1,2.367177429E0,-1.957030334E0,1.343800552E1,1.378453805E1
3.501498750E-1,1.182989960E0,-2.826123047E-1,1.041713745E1,1.048790197E1
3.601238751E-1,9.370513916E-1,2.274669800E0,9.159303131E0,9.483934935E0
3.700978751E-1,1.490300903E0,4.144730988E0,8.205935669E0,9.313279334E0
3.800718752E-1,2.984643402E0,4.837789764E0,7.708669739E0,9.577885737E0
3.900458750E-1,3.828887787E0,4.724924469E0,7.357200623E0,9.545349335E0
4.000198750E-1,3.751199341E0,4.276606750E0,6.576424255E0,8.695413606E0
4.099937500E-1,3.241808624E0,3.636537781E0,6.075266418E0,7.787335375E0
4.199677501E-1,3.398383026E0,3.011886749E0,6.230493622E0,7.709702961E0
4.299417501E-1,3.266507263E0,2.584076385E0,6.753056946E0,7.934185439E0
4.399157502E-1,2.414928131E0,2.378104706E0,7.134463806E0,7.898596943E0
4.498897500E-1,2.908751221E0,2.085313568E0,4.992418213E0,6.142768590E0
4.598637500E-1,4.487218781E0,1.997446289E0,5.222489777E0,7.169332154E0
4.698377501E-1,3.512445831E0,1.584006042E0,6.050118713E0,7.172885563E0
4.798117501E-1,4.317172394E0,1.681303711E0,5.332810364E0,7.064249856E0
4.897857502E-1,4.713847504E0,1.948498077E0,5.749244385E0,7.685753967E0
4.997597500E-1,4.536166992E0,2.009720764E0,6.055058441E0,7.828123738E0
5.097337500E-1,4.225862274E0,1.736838226E0,6.217919769E0,7.716025223E0
5.197077501E-1,3.331172791E0,6.500981140E-1,6.723268890E0,7.531379973E0
5.296817501E-1,2.187700653E0,-1.276844788E-1,6.242319031E0,6.615805647E0
5.396557502E-1,2.481090546E0,8.547225952E-1,5.373825073E0,5.980330838E0
5.496297500E-1,2.842588806E0,1.835483093E0,5.278024292E0,6.269517504E0
5.596037500E-1,2.471809845E0,1.330133972E0,6.524332581E0,7.102535879E0
5.695777501E-1,1.848805389E0,6.897656250E-1,7.389832764E0,7.648757171E0
5.795517501E-1,1.582359467E0,-1.977388000E-1,8.196056213E0,8.349748473E0
5.895257501E-1,1.153950348E0,-1.026864624E0,7.952812042E0,8.101436400E0
5.994997502E-1,1.233135681E0,-1.263372803E0,6.187532959E0,6.434461793E0
6.094737500E-1,1.981429596E0,-1.928439789E0,5.504353638E0,6.159776963E0
6.194477500E-1,3.595373383E0,-2.532284088E0,5.854924622E0,7.322521068E0
6.294217501E-1,4.709207153E0,-2.764151917E0,6.185886383E0,8.251203438E0
6.393957501E-1,4.603377228E0,-3.772155762E0,4.496798859E0,7.459319069E0
6.493697502E-1,4.172273712E0,-4.288132782E0,4.422253876E0,7.439911292E0
6.593437500E-1,4.352798309E0,-3.452570343E0,7.663763123E0,9.465746684E0
6.693177500E-1,3.404819641E0,-4.725523224E0,6.574927368E0,8.783680119E0
6.792917501E-1,3.155438232E0,-5.308710480E0,6.491251373E0,8.959661924E0
6.892657501E-1,4.428840179E0,-5.194947052E0,7.578889618E0,1.020008177E1
6.992397502E-1,6.832541656E0,-5.459147644E0,8.270900574E0,1.203718052E1
7.092137500E-1,7.983947296E0,-6.349196777E0,7.738158417E0,1.280370297E1
7.191877500E-1,9.282496948E0,-6.572382660E0,7.837551727E0,1.381260947E1
7.291617501E-1,9.834848328E0,-6.529421997E0,8.734336853E0,1.468489814E1
7.391357501E-1,1.161794037E1,-6.573131104E0,8.420439606E0,1.578247110E1
7.491097501E-1,1.301408707E1,-7.127278748E0,8.972192230E0,1.733968852E1
7.590837502E-1,1.359532837E1,-7.459887085E0,9.256750488E0,1.806018545E1
7.690577500E-1,1.501123398E1,-7.186854858E0,8.897946625E0,1.887224106E1
7.790317500E-1,1.694326630E1,-6.597530365E0,8.825347595E0,2.021109695E1
7.890057501E-1,1.724054810E1,-6.348897400E0,8.728948059E0,2.034058827E1
7.989797501E-1,1.692799805E1,-6.414161682E0,9.677076416E0,2.052667523E1
8.089537502E-1,1.661769333E1,-6.013145599E0,9.976453857E0,2.029372522E1
8.189277500E-1,1.542781769E1,-5.843099213E0,8.949738922E0,1.876851603E1
8.289017500E-1,1.448657501E1,-5.851930847E0,7.901468811E0,1.750825975E1
8.388757501E-1,1.463955688E1,-5.361550598E0,7.872878265E0,1.746553929E1
8.488497501E-1,1.569456299E1,-4.609963531E0,8.761879578E0,1.855644376E1
8.588237502E-1,1.672322388E1,-3.904181213E0,8.374784546E0,1.910617345E1
8.687977500E-1,1.573931992E1,-3.945794678E0,8.576115875E0,1.835334440E1
8.787717500E-1,1.621308472E1,-3.431763611E0,8.930728455E0,1.882548879E1
8.887457501E-1,1.710792389E1,-2.801274719E0,8.214916992E0,1.918366652E1
8.987197501E-1,1.769859558E1,-2.312840424E0,8.614585876E0,1.981919792E1
9.086937502E-1,1.819990311E1,-1.984872437E0,9.777517548E0,2.075514493E1
9.186677500E-1,1.833701797E1,-1.657054138E0,8.765023041E0,2.039160821E1
9.286417500E-1,1.788825119E1,-8.872050476E-1,7.437882843E0,1.939326596E1
9.386157501E-1,1.639944717E1,-7.849676514E-1,8.195607147E0,1.835009587E1
9.485897501E-1,1.453582260E1,-8.659492493E-1,8.317004700E0,1.676939397E1
9.585637501E-1,1.379157028E1,-4.526586914E-1,9.079219666E0,1.651800655E1
9.685377502E-1,1.349309097E1,2.151026917E-1,1.035112473E1,1.700751470E1
9.785117500E-1,1.293550049E1,7.255412292E-1,1.123832977E1,1.715090782E1
9.884857500E-1,1.189740921E1,1.132544861E0,1.062969543E1,1.599441868E1
9.984597501E-1,1.061772034E1,1.307381287E0,9.533225555E0,1.432925750E1
1.008433750E0,9.702673187E0,8.000862122E-1,8.055648193E0,1.263627606E1
1.018407750E0,9.207353210E0,-4.357438660E-1,6.183491364E0,1.109958519E1
1.028381750E0,9.362879791E0,-1.465602264E0,4.801864471E0,1.062400162E1
1.038355750E0,9.409432983E0,-2.171683960E0,3.410657501E0,1.024139760E1
1.048329750E0,8.620723114E0,-2.875220947E0,2.168390808E0,9.342680622E0
1.058303750E0,6.991960144E0,-3.838617554E0,1.826202393E0,8.182756660E0
1.068277750E0,5.519472198E0,-4.708907776E0,1.697919159E0,7.451262662E0
1.078251750E0,4.039200439E0,-5.083728333E0,1.500479736E0,6.664148362E0
1.088225750E0,1.935175781E0,-5.746250610E0,1.053658905E0,6.154226066E0
1.098199750E0,-7.809260559E-1,-7.114405518E0,1.375639343E0,7.288140708E0
1.108173750E0,-2.399959259E0,-8.597221985E0,6.114784241E-1,8.946839451E0
1.118147750E0,-1.942959595E-1,-9.117090912E0,-9.086105347E-2,9.119613662E0
1.128121750E0,2.624492340E0,-7.775580597E0,-3.216810608E-1,8.212861399E0
1.138095750E0,4.575385437E0,-6.641838226E0,-4.360432434E-1,8.077023006E0
1.148069750E0,5.866899719E0,-6.269412689E0,1.463955688E-1,8.587635265E0
1.158043750E0,7.626340942E0,-5.087320862E0,-2.299218750E-1,9.170320266E0
1.168017750E0,1.013272888E1,-2.956052856E0,4.526586914E-1,1.056481628E1
1.177991750E0,1.158920013E1,-7.964936829E-1,2.511776733E-1,1.161925351E1
1.187965750E0,1.214948502E1,1.894460449E0,-5.093907166E-1,1.230684547E1
1.197939750E0,1.057311310E1,1.479673004E0,-1.798959045E0,1.082665260E1
1.207913750E0,1.092009155E1,-2.496957550E0,-1.833387451E0,1.135096939E1
1.217887750E0,1.164129181E1,-6.345155182E0,-2.562072144E0,1.350351373E1
1.227861750E0,1.002749771E1,-7.728278961E0,-7.672295380E0,1.480341590E1
1.237836750E0,8.593030701E0,-6.913373566E0,-9.312434692E0,1.443455405E1
1.247810750E0,7.067552948E0,-5.988746338E0,-7.633226624E0,1.200339685E1
1.257784750E0,5.449118500E0,-5.335355072E0,-5.232219543E0,9.248514882E0
1.267758750E0,5.438191223E0,-4.466112671E0,-2.964585114E0,7.636023249E0
1.277732750E0,6.795718231E0,-3.438200226E0,-1.443298645E0,7.751523595E0
1.287706750E0,8.114775238E0,-3.548969879E0,-7.511380005E-1,8.888699155E0
1.297680750E0,8.968300323E0,-4.404291229E0,-7.164102173E-1,1.001705723E1
1.307654750E0,9.696086884E0,-4.397854614E0,-4.999603271E-1,1.065857337E1
1.317628750E0,1.055065979E1,-4.292473755E0,-2.637515259E-1,1.139347699E1
1.327602750E0,1.018287460E1,-4.334985352E0,-3.848497009E-1,1.107389464E1
1.337576750E0,9.301956482E0,-4.577032013E0,-7.964936829E-1,1.039759677E1
1.347550750E0,9.091045074E0,-4.852608948E0,-1.595083008E0,1.042780916E1
1.357524750E0,9.422605591E0,-5.867049408E0,-2.129771118E0,1.130237541E1
1.367498750E0,9.353000336E0,-5.284610596E0,-1.919608154E0,1.091286488E1
1.377472750E0,9.801916809E0,-4.293970642E0,-1.944157104E0,1.087637365E1
1.387446750E0,9.622739410E0,-4.565805359E0,-2.005080414E0,1.083808285E1
1.397420750E0,9.278455353E0,-5.873186646E0,-2.245031433E0,1.120822115E1
1.407394625E0,9.084608459E0,-6.737189941E0,-2.025887146E0,1.149017223E1
1.417368625E0,8.984167328E0,-5.914650421E0,-1.197958832E0,1.082282115E1
1.427342625E0,8.078550568E0,-4.987029419E0,-6.092330933E-2,9.494058845E0
1.437316625E0,7.067253571E0,-5.060376892E0,9.605525208E-1,8.745064235E0
1.447290625E0,6.519841919E0,-5.554948425E0,1.590442657E0,8.711790775E0
1.457264625E0,6.729705505E0,-5.748196564E0,2.020348663E0,9.078133544E0
1.467238625E0,6.823560333E0,-5.626948700E0,1.438957672E0,8.960698995E0
1.477212625E0,5.901627502E0,-5.041067047E0,1.025816803E0,7.829039805E0
1.487186625E0,5.064418488E0,-4.683760071E0,7.840695190E-1,6.942672974E0
1.497160625E0,5.094954987E0,-4.644242249E0,5.520520020E-1,6.916090933E0
1.507134625E0,6.022575989E0,-4.838388519E0,-9.331594849E-1,7.781530160E0
1.517108625E0,7.229516144E0,-5.353467407E0,-3.175646210E0,9.539929025E0
1.527082625E0,7.659871216E0,-5.987548828E0,-3.455863495E0,1.031830221E1
1.537056625E0,8.164322205E0,-6.578370209E0,-2.668949890E0,1.081916841E1
1.547030625E0,8.803792419E0,-6.997049561E0,-2.132615204E0,1.144611336E1
1.557004625E0,9.261241150E0,-7.039261780E0,-1.254241791E0,1.170021011E1
1.566978625E0,8.247249756E0,-7.542964325E0,3.974235535E-1,1.118353186E1
1.576952625E0,7.120243378E0,-7.739655304E0,2.511926422E0,1.081248835E1
1.586926625E0,6.578819275E0,-7.373965759E0,3.979474640E0,1.065328365E1
1.596900625E0,6.371051331E0,-6.366710358E0,3.588637390E0,9.695546099E0
1.606874625E0,6.601571960E0,-5.541177063E0,3.002905426E0,9.127038763E0
1.616848625E0,6.815028076E0,-5.295986938E0,2.553839264E0,9.000787761E0
1.626822625E0,6.061045990E0,-5.247338104E0,2.090253296E0,8.284925740E0
1.636796625E0,4.897964630E0,-5.296136627E0,1.463506622E0,7.360772536E0
1.646770625E0,4.374652863E0,-6.622827759E0,1.207239532E0,8.028503128E0
1.656744625E0,5.011428680E0,-8.895551605E0,1.395248566E0,1.030494902E1
1.666718625E0,6.263425140E0,-1.052162018E1,7.824229431E-1,1.226976656E1
1.676692625E0,7.382797394E0,-9.876611481E0,5.652246094E-1,1.234393092E1
1.686666625E0,7.410789185E0,-7.505392456E0,1.071471863E0,1.060182834E1
1.696640625E0,6.311325531E0,-7.377857666E0,5.370831299E-1,9.723891813E0
1.706614625E0,5.789660339E0,-8.429570618E0,7.961943054E-1,1.025727805E1
1.716587625E0,5.120102692E0,-8.984616394E0,1.494941254E0,1.044861870E1
1.726561625E0,4.572990417E0,-9.021739197E0,1.833836517E0,1.027944434E1
1.736536625E0,4.720733185E0,-8.488547974E0,1.719923401E0,9.864020732E0
1.746509625E0,5.867947540E0,-7.629035339E0,1.383123779E0,9.723580613E0
1.756484625E0,7.665260010E0,-7.126380615E0,-9.270222473E-1,1.050718240E1
1.766458625E0,6.108347626E0,-9.938582611E0,-3.259471893E0,1.211245194E1
1.776431625E0,8.195607147E0,-8.535699921E0,3.182531891E0,1.225376101E1
1.786405625E0,8.616531830E0,-5.116360474E0,2.947969666E0,1.044568286E1
1.796379625E0,6.997498627E0,-5.119204559E0,1.121168518E-1,8.670859965E0
1.806353625E0,5.874683533E0,-5.085674286E0,4.189787292E-1,7.781486537E0
1.816327625E0,5.002597046E0,-3.899091797E0,1.082548828E0,6.434345811E0
1.826301625E0,4.931943970E0,-3.009192352E0,4.929249573E-1,5.798472639E0
1.836275625E0,5.878425751E0,-2.981200562E0,-8.463400269E-1,6.645279342E0
1.846249625E0,6.567293243E0,-3.626508636E0,-1.297801208E0,7.613487598E0
1.856223625E0,7.195087738E0,-4.819228363E0,-1.272054749E0,8.752849414E0
1.866197625E0,8.139773254E0,-5.475164337E0,-1.071172485E0,9.868168201E0
1.876171625E0,8.180937653E0,-6.657854919E0,-1.381177826E0,1.063778291E1
1.886145625E0,7.963439941E0,-8.256530457E0,-1.643133087E0,1.158820768E1
1.896119625E0,8.264014893E0,-9.458830261E0,-1.799557800E0,1.268864927E1
1.906093625E0,9.375453644E0,-1.001941452E1,-1.819466400E0,1.384190219E1
1.916067625E0,1.080423248E1,-9.342821503E0,-1.243464203E0,1.433757150E1
1.926041625E0,1.017314484E1,-9.465266876E0,-3.300636292E-1,1.389939189E1
1.936015625E0,8.886869659E0,-1.058703415E1,-9.107061768E-1,1.385247740E1
1.945989625E0,7.692802734E0,-1.266381546E1,-3.691323853E-1,1.482186542E1
1.955963625E0,6.880292358E0,-1.511646515E1,-6.215075684E-1,1.662023505E1
1.965937625E0,7.405550079E0,-1.621877289E1,-6.683601379E-1,1.784201422E1
1.975911625E0,9.163344727E0,-1.611249390E1,-6.795867920E-2,1.853601803E1
1.985885625E0,1.024724075E1,-1.619781647E1,3.067121887E-1,1.916948809E1
1.995859625E0,1.044408142E1,-1.649479889E1,1.344803467E0,1.956951005E1
2.005833625E0,1.031011002E1,-1.585158646E1,1.869462433E0,1.900173812E1
2.015807625E0,9.594897308E0,-1.364487534E1,1.630858612E0,1.676020218E1
2.025781625E0,9.442214813E0,-1.078147980E1,1.338516541E0,1.439400409E1
2.035755625E0,9.771380310E0,-8.825197906E0,1.118324432E0,1.321418332E1
2.045729625E0,9.504335632E0,-7.784861298E0,-4.195774841E-1,1.229278270E1
2.055703625E0,7.356751556E0,-5.722450104E0,-2.682122498E0,9.698557096E0
2.065677625E0,4.196074219E0,-5.147046661E0,-2.622097321E0,7.139644427E0
2.075651625E0,3.347638550E0,-5.196593628E0,-4.558021545E-1,6.198308221E0
2.085625625E0,3.844455414E0,-5.484295349E0,1.240470428E0,6.811468255E0
2.095599625E0,4.249812469E0,-6.134243774E0,1.007105713E0,7.530213452E0
2.105573625E0,3.342848511E0,-6.720724182E0,-1.245559845E0,7.608823104E0
2.115547625E0,1.653012543E0,-7.020401001E0,-2.474204865E0,7.624970190E0
2.125521625E0,-2.415975952E-1,-7.068002014E0,-2.285297699E0,7.432200713E0
2.135495625E0,-2.711611176E0,-8.284522247E0,-1.461261292E0,8.838632733E0
2.145469625E0,-3.675606537E0,-8.523874512E0,9.071136475E-2,9.283035530E0
2.155443625E0,-3.428769836E0,-7.741152191E0,2.152673492E0,8.735897378E0
2.165417625E0,-2.868035889E0,-6.574328613E0,4.240082703E0,8.332210265E0
2.175391625E0,-2.044448547E0,-5.553601227E0,5.518274689E0,8.091576607E0
2.185365625E0,-9.030720520E-1,-4.536915436E0,6.539151764E0,8.009971697E0
2.195339625E0,-8.532257080E-3,-3.184627533E0,5.238506470E0,6.130568926E0
2.205313625E0,1.932481384E-1,-1.815724182E0,1.984872437E0,2.697020159E0
2.215287625E0,4.067042542E-1,-6.656657410E-1,6.219566345E-1,9.976719322E-1
2.225261625E0,5.447172546E-1,-2.903961182E-2,-4.071533203E-2,5.470081579E-1
2.235235625E0,5.481600952E-1,2.350112915E-2,-2.306703186E-1,5.951811396E-1
2.245209625E0,5.623805237E-1,-3.281176758E-1,1.407073975E-2,6.512534440E-1
2.255183625E0,6.259982300E-1,-7.635621643E-1,2.411485291E-1,1.016392432E0
2.265157625E0,6.656657410E-1,-1.100810852E0,3.510200500E-1,1.333458093E0
2.275131625E0,7.144642639E-1,-1.377136230E0,3.201841736E-1,1.584134239E0
2.285105625E0,7.560777283E-1,-1.593586121E0,1.817221069E-1,1.773187294E0
2.295079625E0,8.104147339E-1,-1.775008850E0,2.080673218E-2,1.951374228E0
2.305053625E0,8.957373047E-1,-1.910477142E0,-1.972897339E-1,2.119243136E0
2.315027625E0,1.103654938E0,-2.020198975E0,-5.863307190E-1,2.375508752E0
2.325001625E0,1.446442108E0,-2.115401001E0,-1.144819336E0,2.806728964E0
2.334975625E0,1.385069733E0,-2.074236603E0,-1.310524750E0,2.817507900E0
2.344949625E0,5.137316895E-1,-2.615361328E0,-6.926097107E-1,2.753859716E0
2.354923625E0,7.214996338E-2,-3.785927124E0,2.694396973E-2,3.786710417E0
2.364897625E0,7.649093628E-2,-4.792583771E0,1.585203552E-1,4.795814713E0
2.374871625E0,-6.424639893E-1,-6.073919220E0,-2.107617188E-1,6.111438061E0
2.384845625E0,-1.520088959E0,-7.661667480E0,-3.350033569E-1,7.818186892E0
2.394819625E0,-2.284998322E0,-9.718989258E0,1.378633118E-1,9.984937447E0
2.404793625E0,-3.269800415E0,-1.246637604E1,8.038284302E-1,1.291310445E1
2.414768167E0,-4.589456177E0,-1.565818863E1,1.005010071E0,1.634784464E1
2.424742167E0,-5.640869751E0,-1.831965408E1,1.078656921E0,1.919876658E1
2.434716167E0,-6.310577087E0,-2.134142029E1,7.159611511E-1,2.226639179E1
2.444690167E0,-6.802753601E0,-2.523048294E1,3.541635132E-1,2.613388907E1
2.454664167E0,-7.671397247E0,-3.038276871E1,-2.304008789E0,3.142087565E1
2.464638167E0,-9.491013336E0,-3.590029495E1,-5.992937622E0,3.761417038E1
2.474612167E0,-1.126721970E1,-3.884841431E1,-8.088879089E0,4.125020604E1
2.484586167E0,-1.066472260E1,-3.829291946E1,-8.736582184E0,4.069904001E1
2.494560167E0,-8.490493927E0,-3.383773407E1,-7.117548981E0,3.560534002E1
2.504534167E0,-6.094276886E0,-2.701282654E1,-5.088368683E0,2.815536368E1
2.514508167E0,-3.897145844E0,-1.891810959E1,-2.650837555E0,1.949639854E1
2.524482167E0,-3.202590179E0,-1.525477753E1,-1.177601166E0,1.563174865E1
2.534456167E0,-3.102897491E0,-1.333412155E1,-3.637435913E-1,1.369522106E1
2.544430167E0,-7.689509583E0,-9.297316132E0,1.442250824E1,1.880365360E1
2.554404167E0,-1.112815887E1,-4.281247101E0,2.532239182E1,2.798907865E1
2.564378167E0,-2.801424408E0,-2.955304413E0,1.019350250E1,1.097676164E1
2.574352167E0,-2.918930054E-2,-3.035836945E0,7.197931824E0,7.812002337E0
2.584326167E0,-2.814147949E-2,-4.650978241E0,4.463268585E0,6.446173827E0
2.594300167E0,-3.814068604E-1,-5.799689484E0,1.601819000E0,6.028904827E0
2.604274167E0,-5.542973328E-1,-5.838159485E0,3.764671326E-1,5.876485277E0
2.614248167E0,-1.480421448E-1,-5.600004730E0,-5.465135193E-1,5.628556341E0
2.624222167E0,4.535568237E-1,-4.996908875E0,-1.208137665E0,5.160853487E0
2.634196167E0,1.036295013E0,-4.064946899E0,-1.650318146E0,4.507909785E0
2.644170167E0,1.563648376E0,-3.120261383E0,-1.820663910E0,3.936476142E0
2.654144167E0,2.033371582E0,-2.367476807E0,-1.719624023E0,3.563236338E0
2.664118167E0,2.363285522E0,-1.725312195E0,-1.675765228E0,3.371944503E0
2.674092167E0,2.397713928E0,-1.318158875E0,-1.617985382E0,3.178750005E0
2.684066167E0,2.206860809E0,-1.269510040E0,-1.491947479E0,2.950897771E0
2.694039167E0,1.962718506E0,-1.524878998E0,-1.457070007E0,2.881071484E0
2.704013167E0,1.702110443E0,-2.177821198E0,-1.589394836E0,3.188457476E0
2.713987167E0,1.566492462E0,-3.123853912E0,-1.676513672E0,3.875959235E0
2.723961167E0,2.162103882E0,-3.992946625E0,-1.003363495E0,4.650274642E0
2.733935167E0,3.204685822E0,-4.769681396E0,6.224057007E-1,5.779901443E0
2.743909167E0,3.853586426E0,-5.380860443E0,2.247276764E0,6.989566532E0
2.753883167E0,3.859723663E0,-6.151607666E0,3.946692810E0,8.265357087E0
2.763857167E0,3.404819641E0,-7.468419342E0,6.921606445E0,1.073679282E1
2.773831167E0,2.000589752E0,-8.571176147E0,1.031265472E1,1.355795956E1
2.783805167E0,1.907034302E-1,-8.388256531E0,9.703421631E0,1.282792293E1
2.793779167E0,-1.420995026E0,-8.381370850E0,5.700595551E0,1.023539905E1
2.803753167E0,-2.706970825E0,-8.984017639E0,1.879042511E0,9.569277128E0
2.813727167E0,-3.396437073E0,-9.439670105E0,-1.053958282E0,1.008731801E1
2.823701167E0,-3.646117859E0,-1.007824219E1,-3.362607422E0,1.123264304E1
2.833675167E0,-3.547472992E0,-1.125045456E1,-3.283571777E0,1.224496370E1
2.843649167E0,-3.877386932E0,-1.325029587E1,-1.787133636E0,1.392114638E1
2.853623167E0,-4.738695831E0,-1.579156128E1,-1.647174683E0,1.656930386E1
2.863597167E0,-5.316194916E0,-1.775847107E1,-2.882256317E0,1.875986739E1
2.873571167E0,-5.325026550E0,-1.926448929E1,-3.191064148E0,2.024004312E1
2.883545167E0,-5.143304443E0,-2.118918686E1,-3.381318512E0,2.206509767E1
2.893519167E0,-4.751269684E0,-2.327105759E1,-3.486699371E0,2.400570260E1
2.903493167E0,-4.481979675E0,-2.559991470E1,-3.962709503E0,2.628967176E1
2.913467167E0,-4.788392487E0,-2.856958923E1,-4.044888611E0,2.924912401E1
2.923441167E0,-5.312901764E0,-3.231644760E1,-8.898994446E-1,3.276235083E1
2.933415167E0,-7.156018982E0,-3.691114288E1,5.385800171E0,3.798220531E1
2.943389167E0,-7.871980133E0,-3.464769974E1,2.704575806E0,3.563349406E1
2.953363167E0,-7.885003052E0,-2.930471054E1,-5.848338318E-1,3.035261708E1
2.963337167E0,-7.898475037E0,-2.537298660E1,-2.261796570E0,2.667002214E1
2.973311167E0,-7.391329651E0,-2.300057007E1,-3.266357574E0,2.437882420E1
2.983285167E0,-6.481970673E0,-2.145144150E1,-3.367696838E0,2.266101648E1
2.993259167E0,-5.643414459E0,-1.959649887E1,-2.935994568E0,2.060317837E1
3.003233167E0,-4.688400421E0,-1.743364655E1,-1.045575714E0,1.808331714E1
3.013207167E0,-2.549049225E0,-1.491887604E1,4.067641296E0,1.567214790E1
3.023181167E0,-6.246510315E-1,-1.217373459E1,8.014633484E0,1.458850070E1
3.033155167E0,-2.495310974E-1,-9.589807892E0,7.398365021E0,1.211455679E1
3.043129167E0,3.872447205E-1,-6.922504578E0,5.668562164E0,8.955647666E0
3.053103167E0,1.792073364E0,-3.830534363E0,2.520308990E0,4.923055744E0
3.063077167E0,3.451223145E0,-5.378315735E-1,6.289920044E-1,3.549061134E0
3.073051167E0,4.829107819E0,2.707868958E0,2.032772827E0,5.897881143E0
3.083025167E0,5.508395233E0,5.115911407E0,4.596491547E0,8.811509639E0
3.092999167E0,5.712121582E0,6.405180359E0,6.956932983E0,1.104778643E1
3.102973167E0,5.809269562E0,6.640491028E0,9.089997253E0,1.266774581E1
3.112947167E0,4.775219879E0,3.506458282E0,7.395221558E0,9.475614833E0
3.122921167E0,2.546504517E0,-1.510059814E0,3.505859528E0,4.588683572E0
3.132895167E0,1.913919983E0,-2.708916779E0,4.989125061E-1,3.354136775E0
3.142869167E0,1.589843903E0,-2.830613708E0,-1.667382660E0,3.649677045E0
3.152843167E0,1.339115295E0,-2.636317749E0,-2.565964050E0,3.915044387E0
3.162817167E0,1.284778290E0,-2.424208832E0,-2.205812988E0,3.520377061E0
3.172791167E0,1.296004944E0,-2.284848633E0,-1.595532074E0,3.073415801E0
3.182765167E0,1.424138489E0,-1.843117218E0,-1.254990234E0,2.645798935E0
3.192739167E0,1.559307404E0,-1.318607941E0,-1.064137115E0,2.302727574E0
3.202713167E0,1.520238647E0,-9.199868774E-1,-7.565267944E-1,1.931277865E0
3.212687167E0,1.493743744E0,-3.832031250E-1,-1.790277100E-1,1.552470911E0
3.222660167E0,1.440903625E0,2.637515259E-1,6.785389709E-1,1.614367759E0
3.232634167E0,1.230590973E0,5.129832458E-1,1.385069733E0,1.922478639E0
3.242608167E0,8.129594421E-1,2.881507874E-1,1.712738342E0,1.917656528E0
3.252582167E0,3.649411011E-1,1.930984497E-2,1.936822357E0,1.970998661E0
3.262556167E0,-5.748046875E-2,-1.094224548E-1,2.081571350E0,2.085237771E0
3.272530167E0,-4.797523499E-1,-2.668949890E-1,1.928739166E0,2.005350349E0
3.282504167E0,-7.388635254E-1,-3.637435913E-1,1.514101410E0,1.723581094E0
3.292478167E0,-7.879614258E-1,-4.580474854E-1,9.291178894E-1,1.301518636E0
3.302452167E0,-7.316784668E-1,-4.390370178E-1,3.179388428E-1,9.105997966E-1
3.312426167E0,-5.807922363E-1,-4.093986511E-1,-1.486408997E-1,7.259621163E-1
3.322400167E0,-4.200265503E-1,-3.977229309E-1,-4.132905579E-1,7.109253955E-1
3.332374167E0,-2.450404358E-1,-3.008743286E-1,-4.330494690E-1,5.814654069E-1
3.342348167E0,-8.966354370E-2,-7.185058594E-2,9.580078125E-3,1.152988971E-1
3.352322167E0,3.026705933E-1,9.565109253E-2,1.823358307E0,1.850782033E0
3.362296167E0,1.216819611E0,-3.173400879E-1,7.622449036E0,7.725482768E0
3.372270167E0,1.387913818E0,-3.074306946E0,1.397957932E1,1.438076166E1
3.382244167E0,6.017486572E-2,-4.759053497E0,6.687044220E0,8.207848171E0
3.392218167E0,-1.277443542E0,-4.625231781E0,-3.700305176E0,6.059446297E0
3.402192167E0,-2.286195831E0,-6.248605957E0,-5.736371155E0,8.785085191E0
3.412166167E0,-3.605851593E0,-9.418114929E0,-3.885021057E0,1.080724031E1
3.422140167E0,-4.491559753E0,-1.303713913E1,-3.557202759E0,1.424060382E1
3.432114167E0,-5.162015533E0,-1.671708664E1,-4.123026123E0,1.797516994E1
3.442088167E0,-5.921536102E0,-2.040302170E1,-4.788242798E0,2.177785925E1
3.452062167E0,-7.090305634E0,-2.590228592E1,-6.751110992E0,2.769076289E1
3.462036167E0,-8.428223419E0,-3.409415085E1,-9.630822601E0,3.641701273E1
3.472010167E0,-9.439969482E0,-4.228766235E1,-1.313608337E1,4.527599913E1
3.481984167E0,-9.891280975E0,-5.082186539E1,-1.552406754E1,5.405271606E1
3.491958167E0,-1.016236725E0,-5.821319504E1,7.364685059E-1,5.822672238E1
3.501932167E0,1.256053024E1,-4.667833191E1,3.234024811E1,5.815948106E1
3.511906167E0,5.282814331E0,-2.767804321E1,2.868410110E1,4.020895248E1
3.521880167E0,-3.285966797E0,-1.825184509E1,1.967583389E1,2.703822972E1
3.531854167E0,-5.978118439E0,-1.103984253E1,1.439736053E1,1.910235623E1
3.541828167E0,-5.611381073E0,-8.583750000E0,1.471140747E0,1.036014559E1
3.551802167E0,-6.174210663E0,-7.429350586E0,-5.594915314E0,1.116329722E1
3.561776167E0,-6.967860260E0,-6.617438965E0,-8.936416626E0,1.312254233E1
3.571750167E0,-6.741231537E0,-7.495812378E0,-7.069648590E0,1.231305555E1
3.581724167E0,-5.463338928E0,-1.012868729E1,-6.370751953E-1,1.152580770E1
3.591698167E0,-3.907923431E0,-1.361628479E1,2.081571350E0,1.431810100E1
3.601672167E0,-1.427431641E0,-1.598660568E1,1.343156891E0,1.610630910E1
3.611646167E0,1.313069458E0,-1.565848801E1,3.712280273E-1,1.571783090E1
3.621619167E0,3.335513763E0,-1.421444092E1,-3.442840576E-2,1.460058793E1
3.631593167E0,4.478985901E0,-1.247999771E1,-1.637594604E-1,1.326041005E1
3.641567167E0,5.149142303E0,-1.075214081E1,-4.082011414E-1,1.192848803E1
3.651541167E0,5.295986938E0,-8.703051910E0,-4.387376404E-1,1.019720947E1
3.661515167E0,4.086053009E0,-6.128555603E0,6.810836792E-2,7.366115783E0
3.671489167E0,1.608405304E0,-4.336781616E0,6.384223938E-1,4.669285337E0
3.681463167E0,-4.992118835E-1,-3.311413879E0,6.357279968E-1,3.408639680E0
3.691437167E0,-1.784888306E0,-2.259251862E0,6.688092041E-1,2.955901045E0
3.701411167E0,-2.279908905E0,-1.322050781E0,5.722599792E-1,2.696902736E0
3.711385167E0,-2.249671783E0,-6.713539124E-1,1.793270874E-1,2.354548240E0
3.721359167E0,-1.907183990E0,-4.466711426E-1,-2.546205139E-1,1.975271498E0
3.731333167E0,-1.453926544E0,-3.233276367E-1,-4.816983032E-1,1.565399761E0
3.741307167E0,-9.511221313E-1,2.664459229E-2,-5.553451538E-2,9.531145395E-1
3.751281167E0,-4.387376404E-1,7.646099854E-1,9.936337280E-1,1.328317406E0
3.761255167E0,2.098635864E-1,1.438059540E0,2.022743683E0,2.490692669E0
3.771229167E0,1.083147583E0,2.205363922E0,2.971321106E0,3.855591761E0
3.781203167E0,1.751507721E0,1.629810791E0,3.594175873E0,4.317657086E0
3.791177167E0,1.155896301E0,-2.032473450E0,2.547552338E0,3.457899289E0
3.801151167E0,1.151255951E0,-4.978646851E0,2.096989288E0,5.523556717E0
3.811125167E0,1.803599396E0,-6.819069672E0,3.469335480E0,7.860596074E0
3.821099167E0,1.746418304E0,-8.320447540E0,4.145928497E0,9.458781490E0
3.831073167E0,5.481600952E-1,-8.875193939E0,2.162702637E0,9.151329392E0
3.841047167E0,-8.976832581E-1,-8.122708740E0,-1.982028351E0,8.409082524E0
3.851021167E0,-1.541644135E0,-7.108268280E0,-4.771327972E0,8.698834129E0
3.860995167E0,-1.831441498E0,-7.111711121E0,-5.477110291E0,9.161296314E0
3.870969167E0,-1.750010834E0,-9.327553253E0,-3.141517181E0,9.996745361E0
3.880943167E0,7.276368713E-1,-1.165206940E1,-2.564167786E-1,1.167758221E1
3.890917167E0,4.464466095E0,-1.296019913E1,2.076332245E0,1.386395955E1
3.900891167E0,6.820117493E0,-1.469164856E1,1.150507507E0,1.623829448E1
3.910865167E0,6.740782471E0,-1.678968567E1,5.538482666E-1,1.810078565E1
3.920839167E0,4.544699249E0,-1.848146759E1,2.484832764E-2,1.903206644E1
3.930813167E0,2.265838165E0,-1.967822891E1,1.484912109E-1,1.980880525E1
3.940787167E0,3.870950317E-1,-2.093606323E1,9.990225220E-1,2.096345945E1
3.950761167E0,-2.267335052E0,-2.163585800E1,3.317102051E-1,2.175686538E1
3.960735167E0,-5.132526855E0,-2.191442871E1,1.331481171E0,2.254679267E1
3.970708167E0,-7.993677063E0,-2.097707794E1,3.776796112E0,2.276402559E1
3.980682167E0,-1.023212219E1,-2.002161484E1,5.816753998E0,2.322490070E1
3.990656167E0,-1.160386963E1,-2.037802368E1,7.629484406E0,2.466014339E1
4.000630167E0,-1.225441681E1,-2.233535339E1,8.349187775E0,2.680946995E1
4.010604167E0,-1.189860672E1,-2.532703217E1,7.350015564E0,2.893195688E1
4.020578167E0,-1.084090622E1,-2.834400833E1,4.461322632E0,3.067264996E1
4.030552167E0,-9.620045013E0,-3.174882797E1,1.747765503E0,3.322029542E1
4.040526167E0,-7.933202820E0,-3.364613251E1,1.718426514E-1,3.456916935E1
4.050500167E0,-6.503974915E0,-3.356051056E1,-1.503772888E0,3.421799076E1
4.060474167E0,-6.020330658E0,-3.250655228E1,-4.200415192E0,3.332512280E1
4.070448167E0,-4.542902985E0,-2.857632523E1,-6.166277161E0,2.958491685E1
4.080422167E0,-2.702779541E0,-2.411694855E1,-7.098987579E0,2.528493324E1
4.090396167E0,-1.807790680E0,-2.117077515E1,-7.219187622E0,2.244073300E1
4.100370167E0,-1.035097504E0,-1.843072311E1,-5.915398865E0,1.938439901E1
4.110344167E0,2.498304749E-1,-1.530058228E1,-3.806733856E0,1.576900301E1
4.120318167E0,1.310524750E0,-1.243943207E1,-1.870061188E0,1.264729513E1
4.130292167E0,2.487227783E0,-8.280480652E0,3.394640808E0,9.288500853E0
4.140266167E0,5.336402893E0,-7.206015015E-1,1.892364807E1,1.967488040E1
4.150240167E0,1.416130142E1,4.975802765E0,3.452510468E1,3.764683153E1
4.160214167E0,1.690539505E1,3.132984924E0,3.651970688E1,4.036455087E1
4.170188167E0,1.155806488E1,-1.855840759E0,2.212923203E1,2.503469430E1
4.180162167E0,7.220983887E0,-4.071084137E0,6.705006866E0,1.066177525E1
4.190136167E0,7.384743347E0,-3.938759308E0,-5.540428619E0,1.003716138E1
4.200110167E0,8.819360046E0,-3.072510681E0,-1.250035538E1,1.560385587E1
4.210084167E0,8.379574585E0,-2.674188995E0,-1.017359390E1,1.344881296E1
4.220058167E0,6.285130005E0,-3.407663727E0,-6.150260468E0,9.430839574E0
4.230032167E0,3.762126617E0,-2.800675964E0,-4.146078186E0,6.259979782E0
4.240006167E0,2.129621429E0,-1.438508606E0,-3.093167725E0,4.021477467E0
4.249980167E0,1.051114197E0,-5.813909912E-1,-2.389930115E0,2.674812609E0
4.259954167E0,3.550616455E-1,-2.920426941E-1,-2.073937225E0,2.124281837E0
4.269928167E0,7.035369873E-3,-1.919009399E-1,-1.963167572E0,1.972537042E0
4.279902167E0,-1.321751404E-1,-1.287322998E-2,-1.854493561E0,1.859242414E0
4.289876167E0,-4.134402466E-1,-1.803749084E-1,-2.047891388E0,2.096980468E0
4.299850167E0,-1.022673340E0,-7.963439941E-1,-2.186503143E0,2.541814414E0
4.309823167E0,-1.833237762E0,-1.518442383E0,-2.088457031E0,3.166714502E0
4.319797167E0,-2.520608368E0,-1.692680054E0,-1.965712280E0,3.616995587E0
4.329771167E0,-3.352129211E0,-1.469943237E0,-1.848056946E0,4.100343625E0
4.339745167E0,-4.590054932E0,-9.786648560E-1,-1.593885498E0,4.956496762E0
4.349719167E0,-5.442232819E0,-2.279759216E-1,-1.335373077E0,5.608305656E0
4.359693167E0,-5.703739014E0,4.360432434E-1,-1.122066650E0,5.829391565E0
4.369667167E0,-5.409001923E0,1.186732178E0,-9.571096802E-1,5.619759248E0
4.379641167E0,-4.746779022E0,1.860780487E0,-8.159532166E-1,5.163351117E0
4.389615167E0,-3.982468414E0,2.186952209E0,-7.448510742E-1,4.604087071E0
4.399589167E0,-3.193159790E0,2.267484741E0,-3.956272888E-1,3.936277105E0
4.409563292E0,-2.526446228E0,2.281256104E0,8.023315430E-2,3.404922512E0
4.419537292E0,-1.964514771E0,2.195634155E0,3.365002441E-1,2.965360019E0
4.429511292E0,-1.420096893E0,2.066003723E0,2.276765442E-1,2.517316662E0
4.439485292E0,-8.896000671E-1,1.974244537E0,6.002517700E-2,2.166248553E0
4.449459292E0,-3.620970154E-1,1.990710297E0,-1.556762695E-2,2.023433736E0
4.459433292E0,1.586700439E-1,2.033820648E0,2.089654541E-1,2.050675297E0
4.469407292E0,7.288343811E-1,1.813029785E0,7.550299072E-1,2.094838113E0
4.479381292E0,1.292262726E0,1.172811127E0,1.695374451E0,2.433048175E0
4.489355292E0,2.042203217E0,9.580078125E-2,4.729115753E0,5.152116805E0
4.499329292E0,5.703439636E0,-1.713486786E0,2.052531738E1,2.137180185E1
4.509303292E0,8.696016541E0,-4.396357727E0,2.868829239E1,3.029796668E1
4.519277292E0,6.405479736E0,-6.816075897E0,1.449046692E1,1.724710680E1
4.529251292E0,5.067561951E0,-6.958280182E0,-2.167492676E-1,8.610739077E0
4.539225292E0,4.186344452E0,-4.590054932E0,-6.474486237E0,8.972906785E0
4.549199292E0,1.950593719E0,-1.708247681E0,-4.670437775E0,5.341901815E0
4.559173292E0,-2.490820312E-1,-1.792971497E0,-3.711382141E0,4.129303336E0
4.569147292E0,3.143463135E-2,-3.050656128E0,-5.662125549E0,6.431730458E0
4.579121292E0,-5.498066711E-1,-4.454586639E0,-2.462978210E0,5.119754991E0
4.589095292E0,-2.787203979E0,-9.035360870E0,-2.897524567E0,9.889484349E0
4.599069292E0,-4.252207489E0,-1.659404251E1,-5.181774445E0,1.789676791E1
4.609042292E0,-7.764503632E0,-2.954166779E1,-7.768694916E0,3.151745981E1
4.619016292E0,-1.299807037E1,-4.432178238E1,-1.276470566E1,4.791980736E1
4.628990292E0,-1.481080078E1,-5.467949341E1,-1.736464005E1,5.925147714E1
4.638964292E0,-7.604486389E0,-6.284336655E1,-1.401864807E1,6.483547968E1
4.648938292E0,9.724078674E0,-6.235897385E1,4.096082153E0,6.324537307E1
4.658912292E0,7.677085419E0,-5.146373062E1,5.623505859E0,5.233619234E1
4.668886292E0,-3.812571716E0,-4.296425537E1,2.200289474E1,4.842096984E1
4.678860292E0,-1.171344177E1,-2.648337753E1,3.755240936E1,4.742106549E1
4.688834292E0,-1.251307892E1,-1.524385025E1,1.308698547E1,2.366899456E1
4.698808292E0,-9.877808990E0,-1.167422333E1,-8.998687134E0,1.774358957E1
4.708782292E0,-9.170230408E0,-7.720944214E0,-7.937094727E0,1.437718950E1
4.718756292E0,-1.020188507E1,-5.245841217E0,-6.617738342E-1,1.149065941E1
4.728730292E0,-1.165251846E1,-9.402397614E0,1.403481445E0,1.503848488E1
4.738704292E0,-1.013437546E1,-1.554831711E1,-7.658074951E-1,1.857531135E1
4.748678292E0,-6.606511688E0,-1.750280273E1,-2.298470306E0,1.884879482E1
4.758652292E0,-3.893104248E0,-1.750624557E1,-2.740351410E0,1.814206219E1
4.768626292E0,-1.217568054E0,-1.597028961E1,-3.269051971E0,1.634684444E1
4.778600292E0,1.351240082E0,-1.315778824E1,-3.406166840E0,1.365852165E1
4.788574292E0,3.672912140E0,-1.027598099E1,-2.295476532E0,1.115146992E1
4.798548292E0,5.458698578E0,-7.870034180E0,-5.358856201E-1,9.592809888E0
4.808522292E0,5.507646790E0,-6.204747162E0,8.831634521E-2,8.297039248E0
4.818496292E0,4.169130249E0,-5.056185608E0,-6.586303711E-2,6.553701082E0
4.828470292E0,2.874921570E0,-3.940705261E0,-4.296066284E-2,4.878132594E0
4.838444292E0,2.229314117E0,-2.897374878E0,3.342549133E-1,3.671014705E0
4.848418292E0,1.917512512E0,-1.978435822E0,8.111631775E-1,2.872115637E0
4.858392292E0,1.847158813E0,-1.030307465E0,1.004710693E0,2.341574840E0
4.868366292E0,1.879192200E0,-3.761677551E-1,1.149160309E0,2.234599499E0
4.878340292E0,1.814526672E0,1.073268127E-1,1.370998993E0,2.276766200E0
4.888314292E0,1.792372742E0,3.620970154E-1,1.671274567E0,2.477271275E0
4.898288292E0,1.907333679E0,3.215313721E-1,1.807940369E0,2.647631501E0
4.908261292E0,2.071991272E0,6.616241455E-2,1.776056671E0,2.729817319E0
4.918235292E0,2.279908905E0,-4.567002869E-1,1.798060913E0,2.939316726E0
4.928209292E0,2.400408325E0,-1.290915527E0,2.163002014E0,3.479511566E0
4.938183292E0,2.245630188E0,-2.246378632E0,2.324665833E0,3.936133017E0
4.948157292E0,1.648970947E0,-2.997516632E0,2.048190765E0,3.987392200E0
4.958131292E0,4.876858521E-1,-3.798800354E0,1.995051270E0,4.318443144E0
4.968105292E0,-4.927752686E-1,-4.590953064E0,1.921404419E0,5.001147113E0
4.978079292E0,-1.038839722E0,-5.371729431E0,1.326840820E0,5.629846500E0
4.988053292E0,-1.288969574E0,-6.025120697E0,3.318598938E-1,6.170385155E0
4.998027292E0,-1.580413513E0,-6.781048737E0,-2.180964661E-1,6.966196588E0
5.008001292E0,-2.316133575E0,-8.120164032E0,-7.640112305E-1,8.478517076E0
5.017975292E0,-3.616928558E0,-1.056772430E1,-1.792672119E0,1.131249939E1
5.027949292E0,-4.993316345E0,-1.451411774E1,-2.500250702E0,1.555133677E1
5.037923292E0,-5.926924896E0,-1.878758102E1,-3.220552826E0,1.996180352E1
5.047897292E0,-6.826105042E0,-2.267784119E1,-3.772006073E0,2.398141407E1
5.057871292E0,-7.656278687E0,-2.559542404E1,-4.023034058E0,2.701720078E1
5.067845292E0,-7.826624451E0,-2.595258133E1,-2.485730896E0,2.722078959E1
5.077819292E0,-6.363566895E0,-2.068488556E1,3.902384949E0,2.199063625E1
5.087793292E0,-4.652175751E0,-1.432281555E1,8.561596069E0,1.732301105E1
5.097767292E0,-3.540138245E0,-1.083237396E1,6.977140961E0,1.336238753E1
5.107741292E0,-2.646496582E0,-8.376431122E0,4.008663940E0,9.655978929E0
5.117715292E0,-1.744622040E0,-6.419700165E0,1.090781708E0,6.741369371E0
5.127689292E0,-8.300239563E-1,-4.612208862E0,-1.213676147E0,4.840911087E0
5.137663292E0,1.332229614E-1,-2.811303864E0,-2.683320007E0,3.888622382E0
5.147637292E0,1.004411316E0,-9.979747009E-1,-3.669319611E0,3.933027078E0
5.157611292E0,1.723366241E0,4.842430115E-1,-3.402723999E0,3.844868413E0
5.167585292E0,1.971400452E0,1.253044281E0,-1.512005768E0,2.782570961E0
5.177559292E0,1.978735199E0,1.450034637E0,2.695893860E-1,2.467928661E0
5.187533292E0,2.015558624E0,1.381776581E0,1.137634277E0,2.695550934E0
5.197506292E0,1.990560608E0,1.141077118E0,1.254092102E0,2.614791679E0
5.207480292E0,1.686393127E0,6.381230164E-1,1.855691071E0,2.587414175E0
5.217454292E0,7.126679993E-1,-7.140151978E-2,9.098080444E-1,1.157905234E0
5.227428292E0,3.098556519E-2,-7.420069885E-1,-2.005978546E0,2.139038196E0
5.237402292E0,-7.574249268E-2,-1.313817902E0,-3.750001831E0,3.974212895E0
5.247376292E0,-1.276844788E-1,-2.508633270E0,-4.098776550E0,4.807235528E0
5.257350292E0,1.282832336E-1,-5.058430939E0,-4.158951416E0,6.549889849E0
5.267324292E0,1.067579956E0,-7.612868958E0,-3.645519104E0,8.507955704E0
5.277298292E0,1.745520172E0,-1.015608032E1,-3.506158905E0,1.088512556E1
5.287272292E0,1.577569427E0,-1.329340622E1,-4.986580353E0,1.428528466E1
5.297246292E0,6.622229004E-1,-1.768841675E1,-5.956413574E0,1.867612082E1
5.307220292E0,-9.292675781E-1,-2.414344345E1,-4.405189362E0,2.455962323E1
5.317194292E0,-4.107907562E0,-3.130874313E1,-1.390308838E0,3.160767723E1
5.327168292E0,-7.926766205E0,-3.636193497E1,1.700463867E0,3.725473815E1
5.337142292E0,-1.019859192E1,-3.784160797E1,6.024671631E0,3.965217824E1
5.347116292E0,-1.063238983E1,-3.606435379E1,1.084509750E1,3.913184723E1
5.357090292E0,-1.119985977E1,-3.343941238E1,1.237536530E1,3.737353108E1
5.367064292E0,-1.182750458E1,-3.164209991E1,1.096080688E1,3.551410479E1
5.377038292E0,-1.196372131E1,-3.161231186E1,1.036085449E1,3.535273956E1
5.387012292E0,-1.108085724E1,-3.222588593E1,7.843838654E0,3.496882791E1
5.396986292E0,-9.299561462E0,-3.276461563E1,3.060535583E0,3.419603426E1
5.406960292E0,-7.292535095E0,-3.355527145E1,-3.183879089E-1,3.434004486E1
5.416933500E0,-5.543422394E0,-3.393099014E1,-3.645668793E0,3.457358131E1
5.426907500E0,-3.855981445E0,-3.329331619E1,-6.849007416E0,3.420851354E1
5.436881500E0,-1.649120636E0,-3.049847809E1,-8.355923767E0,3.166541057E1
5.446854500E0,9.023236084E-1,-2.548929474E1,-7.878566437E0,2.669438411E1
5.456828500E0,2.791245575E0,-2.110775620E1,-6.302493896E0,2.220472591E1
5.466802500E0,4.189487915E0,-1.702469696E1,-4.877008209E0,1.819827807E1
5.476776500E0,4.090843048E0,-1.318982162E1,-4.968018951E0,1.467608952E1
5.486750500E0,3.341201935E0,-1.002450394E1,-4.455335083E0,1.146753331E1
5.496724500E0,2.625989227E0,-7.306905212E0,-3.131787415E0,8.372262276E0
5.506698500E0,3.723357239E0,-1.699116669E0,5.355563049E0,6.740359201E0
5.516672500E0,1.494417343E1,3.428470459E0,1.945219894E1,2.476834215E1
5.526646500E0,1.692365707E1,7.641309814E0,2.714724701E1,3.289031475E1
5.536620500E0,9.958491211E0,1.192734695E1,3.287568466E1,3.636267034E1
5.546594500E0,8.467441864E0,6.659501495E0,1.056607773E1,1.508935156E1
5.556568500E0,6.819369049E0,2.527344360E0,2.119891663E0,7.575302265E0
5.566542500E0,6.952741699E0,5.908213806E-1,-1.645378418E0,7.169167119E0
5.576516500E0,7.960895233E0,-1.402283936E0,-3.877237244E0,8.965222908E0
5.586490500E0,7.785759430E0,-1.765728149E0,-3.366798706E0,8.664362604E0
5.596464500E0,7.132517853E0,-1.560205536E0,-2.567460938E0,7.739438474E0
5.606438500E0,5.824088745E0,-1.144220581E0,-2.687211914E0,6.515393950E0
5.616412500E0,4.450095978E0,-9.598040771E-1,-3.087479553E0,5.500646150E0
5.626386500E0,3.349285126E0,-1.144819336E0,-3.358565826E0,4.879373584E0
5.636360500E0,2.331102448E0,-1.404828644E0,-3.096311188E0,4.122465902E0
5.646334500E0,1.271905060E0,-1.620380402E0,-2.850073242E0,3.516573988E0
5.656308500E0,1.715432739E-1,-1.710343323E0,-2.898871765E0,3.370186773E0
5.666282500E0,-6.896159363E-1,-1.502126312E0,-3.135978699E0,3.544899998E0
5.676256500E0,-1.218466187E0,-1.037492523E0,-3.074456635E0,3.466025704E0
5.686230500E0,-1.469793549E0,-5.080435181E-1,-2.692301331E0,3.109161904E0
5.696203500E0,-1.600322113E0,-3.278182983E-2,-2.131268005E0,2.665409692E0
5.706177500E0,-1.622925110E0,3.499722290E-1,-1.540895691E0,2.265110594E0
5.716151500E0,-1.602717133E0,4.698728943E-1,-1.114582214E0,2.007928349E0
5.726125500E0,-1.498084717E0,4.583468628E-1,-8.199948120E-1,1.768256530E0
5.736099500E0,-1.366508331E0,4.945715332E-1,-5.188211060E-1,1.543088254E0
5.746073500E0,-1.269809418E0,6.230044556E-1,-2.237846375E-1,1.432002120E0
5.756047500E0,-1.243314514E0,6.965016174E-1,2.230361938E-2,1.425286966E0
5.766021500E0,-1.352287903E0,6.369255066E-1,1.845661926E-1,1.506127934E0
5.775995500E0,-1.539997559E0,4.281097412E-1,3.350033569E-1,1.633125127E0
5.785969500E0,-1.831591187E0,1.836680603E-1,6.007008362E-1,1.936311371E0
5.795943500E0,-2.293680267E0,-2.110610962E-2,1.360071716E0,2.666685154E0
5.805917500E0,-2.799927521E0,-1.203497314E-1,3.590882721E0,4.555053995E0
5.815891500E0,-2.310894470E0,-6.273454285E-1,6.364764404E0,6.800295689E0
5.825865500E0,-8.663983154E-1,-1.067729645E0,5.719606018E0,5.882566246E0
5.835839500E0,-1.317260742E-1,-9.747729492E-1,3.665128326E0,3.794825386E0
5.845813500E0,2.320175171E-1,-1.240919495E0,2.661016388E0,2.945288023E0
5.855787500E0,2.993774414E-1,-1.566492462E0,1.847607880E0,2.440733571E0
5.865761500E0,3.896397400E-1,-1.805245972E0,1.242566071E0,2.225916123E0
5.875735500E0,7.864645386E-1,-1.989363098E0,1.056203613E0,2.385719615E0
5.885709500E0,1.764830017E0,-2.271676025E0,2.317780151E0,3.694217344E0
5.895683500E0,3.705394592E0,-3.248095551E0,9.331295471E0,1.055240015E1
5.905657500E0,4.235142975E0,-4.264481964E0,1.380219818E1,1.505400004E1
5.915631500E0,2.053130493E0,-3.545227661E0,3.675307159E0,5.503804748E0
5.925604500E0,9.702822876E-1,-4.175267487E0,4.427792358E-1,4.309334027E0
5.935578500E0,5.013075256E-1,-7.189848633E0,-3.230432281E0,7.898159616E0
5.945552500E0,-2.463876343E-1,-1.288520508E1,-6.574777679E0,1.446778899E1
5.955526500E0,-6.774911499E-1,-2.171444458E1,-5.301226044E0,2.236244833E1
5.965500500E0,-2.227068787E0,-3.798366257E1,-1.050949539E1,3.947363615E1
5.975474500E0,-6.286926270E0,-5.960410263E1,-1.954440720E1,6.304092595E1
5.985448500E0,-7.514673157E0,-7.118267487E1,-1.928739166E1,7.413128213E1
5.995422500E0,-4.295168152E0,-7.026478363E1,-1.435769302E1,7.184519216E1
6.005396500E0,-4.047583008E-1,-5.997982132E1,-9.885293427E0,6.079031026E1
6.015370500E0,-1.504521332E0,-4.376958069E1,-5.448669434E0,4.413306897E1
6.025344500E0,-7.436835022E0,-2.603715546E1,2.701956253E1,3.825306182E1
6.035318500E0,-2.998863831E0,-1.144160706E1,6.557069504E1,6.662896971E1
6.045292500E0,-1.121467896E0,-8.799301758E0,2.586995316E1,2.734848950E1
6.055266500E0,-6.464606781E0,-1.527812897E1,-3.635639648E0,1.698323412E1
6.065240500E0,-5.787864075E0,-1.511047760E1,1.015637970E0,1.621287835E1
6.075214500E0,-5.515729980E0,-1.211355972E1,-3.430416412E0,1.374515781E1
6.085188500E0,-6.266119537E0,-9.535620575E0,-1.923215652E1,2.236220379E1
6.095162500E0,-3.858077087E0,-3.944896545E0,-1.666125275E1,1.755119115E1
6.105136500E0,-3.686384125E0,-7.319029999E0,2.335144043E-2,8.195009050E0
6.115110500E0,-4.539609833E0,-1.086306015E1,5.477559357E0,1.298529129E1
6.125084500E0,-3.671115875E0,-9.529034271E0,6.154302063E0,1.192287800E1
6.135058500E0,-2.167792053E0,-8.248147888E0,3.104843445E0,9.075864630E0
6.145031500E0,-8.140072632E-1,-7.080575867E0,6.810836792E-1,7.159681376E0
6.155005500E0,3.409909058E-1,-5.469925232E0,-4.087998962E-1,5.495768754E0
6.164979500E0,1.465452576E0,-3.603905640E0,-9.391470337E-1,4.002209922E0
6.174953500E0,2.247576141E0,-1.941462708E0,-1.315314789E0,3.248219351E0
6.184927500E0,2.813399506E0,-5.894741821E-1,-1.420695648E0,3.206411189E0
6.194901500E0,3.220253448E0,5.301974487E-1,-1.230291595E0,3.487801459E0
6.204875500E0,3.315455475E0,1.401236115E0,-9.038204956E-1,3.711145260E0
6.214849500E0,3.344944153E0,2.025288391E0,-4.954696655E-1,3.941564999E0
6.224823500E0,3.453318787E0,2.368524628E0,-1.707948303E-1,4.191001125E0
6.234797500E0,3.757785645E0,2.317181396E0,5.210664368E-1,4.445423805E0
6.244771500E0,4.067940674E0,1.738634491E0,1.207838287E0,4.585833027E0
6.254745500E0,4.159101105E0,4.532574463E-1,1.544637909E0,4.459761270E0
6.264719500E0,3.779789886E0,-1.037642212E0,1.519490204E0,4.203851023E0
6.274693500E0,3.190016327E0,-2.223326569E0,1.505868530E0,4.169775201E0
6.284667500E0,2.476001129E0,-3.583997040E0,1.380878448E0,4.569731027E0
6.294641500E0,1.850901031E0,-5.486989746E0,1.270557861E0,5.928508108E0
6.304615500E0,1.356479187E0,-8.230783997E0,1.172212372E0,8.423771295E0
6.314589500E0,7.873626709E-1,-1.210023743E1,7.625143433E-1,1.214977835E1
6.324563500E0,-2.993774414E-4,-1.737167542E1,-3.652404785E-2,1.737171381E1
6.334537500E0,-1.162332916E0,-2.409509399E1,-1.657503204E0,2.417998944E1
6.344511500E0,-2.832859039E0,-3.121084671E1,-3.997137909E0,3.159302382E1
6.354485500E0,-4.455933838E0,-3.593681900E1,-4.155658264E0,3.644968864E1
6.364458500E0,-5.607040100E0,-3.303465408E1,-1.685944061E0,3.354951082E1
6.374432500E0,-6.280339966E0,-2.208417572E1,1.479972382E0,2.300747282E1
6.384406500E0,-6.456972656E0,-1.417716843E1,4.249064026E0,1.614741916E1
6.394380500E0,-5.431604919E0,-9.056616669E0,5.059778137E0,1.171008080E1
6.404354500E0,-4.306245117E0,-5.755082245E0,4.164938965E0,8.307312155E0
6.414328875E0,-3.477867737E0,-4.154011688E0,2.632425842E0,6.023374712E0
6.424302875E0,-3.015778656E0,-3.452869720E0,1.178050232E0,4.733395458E0
6.434276875E0,-2.708318024E0,-3.026705933E0,4.565505981E-2,4.061775437E0
6.444250875E0,-2.383194122E0,-2.543061676E0,-7.270381165E-1,3.560247370E0
6.454224875E0,-1.778152313E0,-1.799557800E0,-1.396296387E0,2.889615463E0
6.464198875E0,-1.007704468E0,-1.000519409E0,-2.061962128E0,2.503636395E0
6.474172875E0,-2.915936279E-1,-6.033952332E-1,-2.440674591E0,2.531008714E0
6.484146875E0,3.894900513E-1,-8.361611938E-1,-2.313738556E0,2.490834026E0
6.494120875E0,8.595126343E-1,-1.806593170E0,-1.911524963E0,2.767032442E0
6.504094875E0,1.312470703E0,-3.137774963E0,-1.847458191E0,3.870570092E0
6.514068875E0,1.842668152E0,-4.218228149E0,-2.160906372E0,5.085114648E0
6.524042875E0,2.599494324E0,-5.158123627E0,-2.842439117E0,6.437629239E0
6.534016875E0,4.043391724E0,-5.923482056E0,-3.404669952E0,7.939044891E0
6.543990875E0,5.600304108E0,-6.332731018E0,-2.687660980E0,8.870761511E0
6.553964875E0,6.447242889E0,-6.848109283E0,-1.363664246E0,9.503847737E0
6.563937875E0,6.398893433E0,-8.390352173E0,1.811083832E0,1.070625384E1
6.573911875E0,4.732109528E0,-1.060439804E1,4.719984741E0,1.253492618E1
6.583885875E0,1.712289276E0,-1.216400482E1,5.401367798E0,1.341900600E1
6.593859875E0,-1.214125214E0,-1.260109589E1,6.737339630E0,1.434062282E1
6.603833875E0,-3.175646210E0,-1.233988907E1,4.614603882E0,1.355183235E1
6.613807875E0,-4.128414917E0,-1.233015930E1,1.343605957E0,1.307218096E1
6.623781875E0,-4.927004242E0,-1.154129974E1,-1.504521332E0,1.263885102E1
6.633755875E0,-5.319338379E0,-1.174891800E1,-1.560205536E0,1.299102291E1
6.643729875E0,-5.828130341E0,-1.286709274E1,-1.439556427E0,1.419864436E1
6.653703875E0,-6.554120636E0,-1.452549408E1,-3.066074066E0,1.622797849E1
6.663677875E0,-6.804849243E0,-1.568722824E1,-4.037254486E0,1.756970480E1
6.673651875E0,-6.749015350E0,-1.646560959E1,-3.043171692E0,1.805343184E1
6.683625875E0,-6.803951111E0,-1.750070709E1,-2.273023224E0,1.891388733E1
6.693599875E0,-6.852150879E0,-1.899325333E1,-1.469194794E0,2.024485557E1
6.703573875E0,-7.145241394E0,-2.130519562E1,-1.293310547E-1,2.247181705E1
6.713547875E0,-8.390052795E0,-2.553839264E1,2.422711945E0,2.699022078E1
6.723521875E0,-1.120270386E1,-3.311174377E1,9.645492096E0,3.626187622E1
6.733495875E0,-1.339609268E1,-3.934118958E1,1.577165268E1,4.445142882E1
6.743469875E0,-1.280407379E1,-3.831073242E1,1.018781433E1,4.165870960E1
6.753442875E0,-1.263657211E1,-3.664065536E1,6.958130493E0,3.937811779E1
6.763416875E0,-1.210427902E1,-3.538416824E1,6.264323273E0,3.791826313E1
6.773390875E0,-1.052910461E1,-3.379836594E1,3.310366058E0,3.555488866E1
6.783364875E0,-7.029382324E0,-3.270399170E1,-3.849993896E-1,3.345312412E1
6.793338875E0,-3.328179016E0,-3.100667130E1,-2.409988403E0,3.127776342E1
6.803312875E0,-9.502239990E-1,-2.840418320E1,-2.520758057E0,2.853164506E1
6.813286875E0,9.746232605E-1,-2.463981125E1,-2.460433502E0,2.478152380E1
6.823260875E0,2.682721252E0,-2.055211166E1,-2.136806488E0,2.083631995E1
6.833234875E0,4.270469513E0,-1.651844971E1,-3.485202484E0,1.741386594E1
6.843208875E0,5.451812897E0,-1.217897369E1,-7.157665558E0,1.514205535E1
6.853182875E0,6.300997009E0,-7.510631561E0,-1.078986237E1,1.457852117E1
6.863156875E0,6.030060425E0,-4.086053009E0,-9.088051300E0,1.164689376E1
6.873130875E0,4.825664978E0,-2.490670624E0,-5.906567230E0,8.023591408E0
6.883104875E0,3.420836334E0,-9.250762939E-1,-4.564308472E0,5.778477239E0
6.893078875E0,3.045866089E0,3.659889221E-1,-3.095413055E0,4.358076423E0
6.903052875E0,3.997137909E0,1.202000427E0,6.478527832E-1,4.223935336E0
6.913026875E0,5.992338867E0,2.078427887E0,5.771847382E0,8.575675471E0
6.923000875E0,7.516319733E0,3.497926025E0,7.393125916E0,1.110805382E1
6.932974875E0,9.902208252E0,5.492528229E0,6.871161346E0,1.324516715E1
6.942948875E0,1.132574799E1,7.055877228E0,5.600154419E0,1.447134066E1
6.952921875E0,1.127844635E1,6.397695923E0,4.863985291E0,1.384890675E1
6.962895875E0,1.036055511E1,4.077071686E0,4.366120605E0,1.195937394E1
6.972869875E0,9.063502350E0,1.748064880E0,4.021237793E0,1.006842386E1
6.982843875E0,7.593259735E0,5.890251160E-1,3.688928833E0,8.462431088E0
6.992817875E0,5.981411591E0,-6.810836792E-2,3.163072357E0,6.766605508E0
7.002791875E0,4.448599091E0,-2.499801636E-1,2.604284363E0,5.160893430E0
7.012765875E0,2.871778107E0,-2.302212524E-1,1.834135895E0,3.415284146E0
7.022739875E0,1.546434174E0,-2.028282166E-1,9.803114319E-1,1.842174922E0
7.032713875E0,6.589297485E-1,-1.697470093E-1,2.412982178E-1,7.219607265E-1
7.042687875E0,6.975494385E-2,-1.281335449E-1,-3.197351074E-1,3.514462924E-1
7.052661875E0,-1.796264648E-1,-4.999603271E-2,-6.574328613E-1,6.833617178E-1
7.062635875E0,-2.899470520E-1,-2.694396973E-2,-9.219328308E-1,9.668275001E-1
7.072609875E0,-3.763174438E-1,-4.400848389E-2,-1.176553345E0,1.236053938E0
7.082583875E0,-4.117936707E-1,-7.768844604E-2,-1.325493622E0,1.390159294E0
7.092557875E0,-4.249662781E-1,-1.158590698E-1,-1.391506348E0,1.459558007E0
7.102531875E0,-4.116439819E-1,-1.375639343E-1,-1.400188293E0,1.465913320E0
7.112505875E0,-4.113446045E-1,-1.588197327E-1,-1.427281952E0,1.493841311E0
7.122479875E0,-5.346881104E-1,-2.324665833E-1,-1.394051056E0,1.511062684E0
7.132453875E0,-7.135661316E-1,-3.652404785E-1,-1.231189728E0,1.469151244E0
7.142426875E0,-9.919871521E-1,-5.361849976E-1,-9.569599915E-1,1.478954119E0
7.152400875E0,-1.228645020E0,-7.831713867E-1,-7.472460938E-1,1.637468390E0
7.162374875E0,-1.441352692E0,-1.043629761E0,-4.713697815E-1,1.840882976E0
7.172348875E0,-1.609902191E0,-1.221759338E0,-2.167492676E-1,2.032599614E0
7.182322875E0,-1.654808807E0,-1.339863739E0,2.829116821E-2,2.129419503E0
7.192296875E0,-1.629511414E0,-1.416803741E0,2.800675964E-1,2.177401696E0
7.202270875E0,-1.428329773E0,-1.481918335E0,4.912783813E-1,2.116025127E0
7.212244875E0,-9.307644653E-1,-1.442849579E0,7.854167175E-1,1.888125212E0
7.222218875E0,-2.909948730E-1,-1.335971832E0,1.463057556E0,2.002507469E0
7.232192875E0,5.276527405E-1,-1.124611359E0,3.159629517E0,3.395059175E0
7.242166875E0,1.540147247E0,-1.023870850E0,6.024971008E0,6.302431333E0
7.252140875E0,2.470762024E0,-1.230590973E0,8.097860413E0,8.555370383E0
7.262114875E0,1.261726227E0,-1.553170166E0,4.174818420E-1,2.044157950E0
7.272088875E0,2.836601257E-1,-2.084714813E0,-2.531535645E0,3.291682190E0
7.282062875E0,4.671784973E-1,-2.138003998E0,-1.187031555E-1,2.191667694E0
7.292036875E0,5.526507568E-1,-2.451751556E0,-5.890251160E-1,2.581367688E0
7.302010875E0,2.440375214E0,-5.401816864E0,-4.279600525E-1,5.942912285E0
7.311984875E0,5.636977844E0,-1.360356125E1,1.460512848E0,1.479748275E1
7.321957875E0,7.232958984E0,-2.786186096E1,1.645677795E0,2.883239926E1
7.331931875E0,7.385491791E0,-4.983841049E1,-1.172062683E-1,5.038279852E1
7.341905875E0,4.469555511E0,-7.265306717E1,-4.617298279E0,7.293671599E1
7.351879875E0,2.167941742E0,-7.843898529E1,-1.599109634E1,8.008176788E1
7.361853875E0,3.543431396E0,-7.191974213E1,-1.237371872E1,7.306239887E1
7.371827875E0,3.050356750E0,-6.345454559E1,-1.163979492E0,6.353848346E1
7.381801875E0,-2.345622253E-1,-4.646472610E1,-1.391805725E0,4.648615831E1
7.391775875E0,-2.309846649E0,-2.962235001E1,-2.447111206E0,2.981287247E1
7.401749875E0,-3.570674744E0,-1.748977982E1,-2.506837006E0,1.802571352E1
7.411723875E0,-1.431922302E1,-7.765551453E0,3.152773773E1,3.548721155E1
7.421697292E0,-1.403047348E1,-1.868863678E0,6.329542648E1,6.485875308E1
7.431671292E0,-2.980152740E0,-5.968238983E0,1.725162506E1,1.849647951E1
7.441645292E0,-3.690126343E0,-1.060784088E1,-4.321513367E-1,1.123966527E1
7.451619292E0,-4.989424438E0,-1.216894455E1,-1.532812500E0,1.324111332E1
7.461593292E0,-5.707481232E0,-1.228854584E1,-6.133046265E0,1.487272528E1
7.471567292E0,-6.566395111E0,-9.409432983E0,-1.683309540E1,2.037174697E1
7.481541292E0,-4.825066223E0,-4.986430664E0,-2.150937103E1,2.260085833E1
7.491515292E0,-1.389560394E0,-5.210814056E0,-8.766070862E0,1.029210666E1
7.501488292E0,1.510359192E-1,-6.538702698E0,-5.779481506E-1,6.565932446E0
7.511462292E0,5.460644531E-1,-5.839207306E0,1.268162842E0,6.000230441E0
7.521436292E0,7.134164429E-1,-4.350552979E0,1.023870850E-1,4.409847770E0
7.531410292E0,1.120719452E0,-2.527194672E0,-1.163081360E0,2.999247114E0
7.541384292E0,1.439556427E0,-1.152603149E0,-1.718426514E0,2.520675784E0
7.551358292E0,1.572929077E0,1.422042847E-1,-1.791624298E0,2.388356248E0
7.561332292E0,1.570683746E0,1.012793884E0,-1.263522491E0,2.255945028E0
7.571306292E0,1.509461060E0,1.433119812E0,-5.881269836E-1,2.162914338E0
7.581280292E0,1.848805389E0,1.531465302E0,-1.109193420E-1,2.403283262E0
7.591254292E0,2.980601807E0,1.489552460E0,1.507814484E0,3.657356720E0
7.601228292E0,4.462669830E0,1.450483704E0,2.977158966E0,5.557229570E0
7.611202292E0,5.075645142E0,1.600322113E0,2.862796783E0,6.043079504E0
7.621176292E0,5.343887329E0,1.527423706E0,2.428998871E0,6.065491775E0
7.631150292E0,5.541177063E0,9.274713135E-1,2.109563141E0,6.001258445E0
7.641124292E0,5.716761932E0,-3.498225403E-1,2.232756958E0,6.147271463E0
7.651098292E0,5.820047150E0,-1.784439240E0,2.125579834E0,6.447888170E0
7.661072292E0,5.515879669E0,-3.213816833E0,1.256786499E0,6.506386053E0
7.671046292E0,4.810097351E0,-4.584217072E0,4.974156189E-1,6.663295355E0
7.681019292E0,4.026776276E0,-6.047873383E0,1.737886047E-1,7.267867783E0
7.690993292E0,3.418890381E0,-7.736362152E0,-3.308120728E-2,8.458203423E0
7.700967292E0,2.958447876E0,-9.799671478E0,-1.188528442E-1,1.023719204E1
7.710941292E0,2.443368988E0,-1.243988113E1,-1.535806274E-1,1.267849682E1
7.720915292E0,1.765428772E0,-1.576027634E1,-8.906478882E-2,1.585909775E1
7.730889292E0,8.328680420E-1,-1.955428665E1,6.212081909E-2,1.957211421E1
7.740863292E0,-3.068618774E-1,-2.362402359E1,1.763333130E-1,2.362667451E1
7.750837292E0,-1.697470093E0,-2.745680328E1,6.242019653E-2,2.750929566E1
7.760811292E0,-3.434008942E0,-3.076073273E1,-3.098556519E-1,3.095336986E1
7.770785292E0,-5.306614838E0,-3.212589386E1,-5.105882263E-1,3.256522559E1
7.780759292E0,-6.648274841E0,-2.895488800E1,-3.984713745E-1,2.971100599E1
7.790733292E0,-7.163503418E0,-2.208672043E1,-2.930905151E-1,2.322121665E1
7.800707292E0,-6.913822632E0,-1.614303040E1,-7.334747314E-1,1.757658553E1
7.810681292E0,-6.435716858E0,-1.147603546E1,-1.840871887E0,1.328558056E1
7.820655292E0,-6.307433624E0,-8.777596893E0,-2.794838104E0,1.116427544E1
7.830629292E0,-6.591991882E0,-7.797135773E0,-2.933898926E0,1.062343853E1
7.840603292E0,-6.945107574E0,-7.194189606E0,-2.977907410E0,1.043354282E1
7.850576292E0,-7.235653381E0,-6.645430756E0,-3.003653870E0,1.027318677E1
7.860550292E0,-7.336693268E0,-5.951473846E0,-3.045417023E0,9.925808476E0
7.870524292E0,-7.150181122E0,-5.266947327E0,-3.151097260E0,9.423122527E0
7.880498292E0,-6.715634766E0,-4.768932953E0,-3.022963715E0,8.773869240E0
7.890472292E0,-6.134692841E0,-4.289779358E0,-2.367776184E0,7.851307359E0
7.900446292E0,-5.450316010E0,-3.997137909E0,-1.408870239E0,6.904199549E0
7.910420292E0,-4.627028046E0,-4.074077911E0,-5.116360474E-1,6.186216195E0
7.920394292E0,-3.662433929E0,-4.374652863E0,1.788780212E-1,5.708152705E0
7.930368292E0,-2.663561096E0,-4.461172943E0,5.438191223E-1,5.224209125E0
7.940342292E0,-1.668580170E0,-4.412524109E0,7.665559387E-1,4.779344809E0
7.950316292E0,-7.027885437E-1,-4.351301422E0,1.291364594E0,4.592968356E0
7.960290292E0,1.686842194E0,-4.098626862E0,4.862937469E0,6.579691449E0
7.970264292E0,4.484075317E0,-3.513643341E0,7.742499390E0,9.612435580E0
7.980238292E0,3.428470459E0,-2.918780365E0,5.290149078E0,6.946896126E0
7.990212292E0,2.293380890E0,-2.872227173E0,2.834056549E0,4.641245669E0
8.000186292E0,2.984793091E0,-2.474204865E0,8.265811157E-1,3.964078184E0
8.010160292E0,5.326523438E0,-2.558180237E0,-4.056564331E-1,5.922895845E0
8.020134292E0,7.022796021E0,-3.313060455E0,-4.324507141E0,8.888047904E0
8.030107292E0,7.884553986E0,-5.016667786E0,-5.697152710E0,1.094489361E1
8.040081292E0,8.089926910E0,-6.763535156E0,-3.071911926E0,1.098312197E1
8.050055292E0,7.536976776E0,-8.508905640E0,-1.006806335E0,1.141144834E1
8.060029292E0,6.950646057E0,-9.630822601E0,-3.399430847E-1,1.188191003E1
8.070003292E0,5.712121582E0,-9.772428131E0,-1.396895142E0,1.140526197E1
8.079977292E0,3.269950104E0,-1.042072998E1,-2.208058319E0,1.114269754E1
8.089951292E0,1.046922913E0,-1.247445923E1,-1.377285919E0,1.259385156E1
8.099925292E0,-1.134790192E0,-1.392973297E1,4.632865906E-1,1.398355620E1
8.109899292E0,-3.682791595E0,-1.691422668E1,1.347048798E0,1.736284996E1
8.119873292E0,-6.302344208E0,-2.021201889E1,2.355950775E0,2.130248235E1
8.129847292E0,-8.345295868E0,-2.260973282E1,3.118764496E0,2.430165989E1
8.139821292E0,-9.482331390E0,-2.429133591E1,2.347268829E0,2.618192658E1
8.149795292E0,-1.037253021E1,-2.609553406E1,1.220711517E0,2.810794225E1
8.159769292E0,-1.136242172E1,-2.863889511E1,1.766326904E-2,3.081057047E1
8.169743292E0,-1.226489502E1,-3.200210129E1,-1.046324158E0,3.428785399E1
8.179717292E0,-1.363529526E1,-3.660323318E1,-1.419947205E0,3.908624063E1
8.189690292E0,-1.538695267E1,-4.151676544E1,5.565426636E-1,4.427990362E1
8.199664292E0,-1.962613724E1,-4.515390198E1,1.092143875E1,5.043151744E1
8.209638292E0,-2.017878799E1,-4.158352661E1,1.266965332E1,4.792591455E1
8.219612292E0,-1.547856216E1,-3.592634079E1,1.612446899E0,3.915211149E1
8.229586292E0,-1.294732590E1,-3.335753265E1,-2.796484680E0,3.589120448E1
8.239560292E0,-8.763975220E0,-2.760125290E1,-5.298531647E0,2.943995348E1
8.249534292E0,-4.236789551E0,-2.103515717E1,-5.971382446E0,2.227297984E1
8.259508292E0,-4.291575623E-1,-1.633508102E1,-5.756429443E0,1.732499721E1
8.269482292E0,2.837649078E0,-1.273132507E1,-5.186714172E0,1.403712557E1
8.279456292E0,4.006568298E0,-1.146795227E1,-3.623814240E0,1.267669312E1
8.289430292E0,4.369713135E0,-1.176718002E1,-3.212469635E0,1.295688542E1
8.299404292E0,4.995112610E0,-1.094538895E1,-3.745810547E0,1.260094385E1
8.309378292E0,5.188360748E0,-9.474846954E0,-3.528312836E0,1.136401353E1
8.319352292E0,4.635709991E0,-6.638395386E0,-3.350033569E0,8.762466852E0
8.329326292E0,6.079757080E0,-3.854035492E0,3.266207886E-1,7.205811326E0
8.339300292E0,9.871821442E0,-9.469308472E-1,7.478448486E0,1.242081835E1
8.349273292E0,1.149399811E1,2.744393005E0,1.145852188E1,1.646029797E1
8.359247292E0,1.133637589E1,4.972958679E0,1.118923187E1,1.668660080E1
8.369221292E0,1.093685669E1,5.463039551E0,7.149732056E0,1.416256699E1
8.379195292E0,1.057700500E1,6.271208954E0,2.959645386E0,1.264755302E1
8.389169292E0,9.965376892E0,6.616540833E0,7.191046143E-1,1.198350786E1
8.399143292E0,9.955946503E0,5.763315125E0,1.118025055E0,1.155796920E1
8.409117292E0,9.528585205E0,4.328698425E0,1.896556091E0,1.063618781E1
8.419092042E0,7.909402313E0,2.337988129E0,1.949396210E0,8.474961889E0
8.429066042E0,6.032305756E0,7.973918152E-1,1.378034363E0,6.238872105E0
8.439040042E0,4.770280151E0,9.071136475E-2,6.631210327E-1,4.817004337E0
8.449014042E0,3.831282806E0,-3.150947571E-1,3.507206726E-1,3.860183628E0
8.458988042E0,2.924468536E0,-5.514532471E-1,4.195774841E-1,3.005438765E0
8.468962042E0,1.920655975E0,-6.653663635E-1,1.866618347E-1,2.041194360E0
8.478936042E0,1.146914978E0,-9.442364502E-1,-1.907034302E-1,1.497786446E0
8.488910042E0,8.774752808E-1,-1.208437042E0,-4.327500916E-1,1.554849059E0
8.498884042E0,6.280938721E-1,-1.132544861E0,-6.927593994E-1,1.468698526E0
8.508858042E0,2.493814087E-1,-1.014440460E0,-1.044378204E0,1.477161592E0
8.518831042E0,-5.763015747E-2,-9.286688232E-1,-1.313668213E0,1.609804706E0
8.528805042E0,-3.124003601E-1,-8.264314270E-1,-1.474433899E0,1.718877020E0
8.538779042E0,-5.554948425E-1,-6.848258972E-1,-1.526076508E0,1.762518237E0
8.548753042E0,-7.357200623E-1,-5.523513794E-1,-1.429527283E0,1.699977738E0
8.558727042E0,-8.716374207E-1,-5.848338318E-1,-1.195863190E0,1.591185461E0
8.568701042E0,-1.034798126E0,-6.975494385E-1,-9.518705750E-1,1.569534954E0
8.578675042E0,-1.221909027E0,-8.491841125E-1,-6.842271423E-1,1.637785734E0
8.588649042E0,-1.380429382E0,-1.007704468E0,-3.562591553E-1,1.745844827E0
8.598623042E0,-1.485959930E0,-1.171014862E0,-6.137237549E-2,1.892912911E0
8.608597042E0,-1.539249115E0,-1.300495605E0,9.295669556E-2,2.017230181E0
8.618571042E0,-1.579515381E0,-1.320104828E0,2.061213684E-1,2.068823727E0
8.628545042E0,-1.501677246E0,-1.388213196E0,2.420466614E-1,2.059309839E0
8.638519042E0,-1.220412140E0,-1.434017944E0,1.501377869E-1,1.889008896E0
8.648493042E0,-8.545729065E-1,-1.335971832E0,-2.829116821E-2,1.586163919E0
8.658467042E0,-5.307962036E-1,-1.154399414E0,-1.520837402E-1,1.279653110E0
8.668441042E0,-2.565664673E-1,-1.193917236E0,-1.999841309E-1,1.237440250E0
8.678415042E0,9.954299927E-2,-1.548829193E0,-2.737806702E-1,1.575987479E0
8.688388042E0,1.195563812E0,-2.661615143E0,-1.542991333E0,3.300665123E0
8.698362042E0,2.393073578E0,-3.516637115E0,-9.339079285E-1,4.354965186E0
8.708336042E0,1.909728699E0,-4.194128265E0,2.780767365E0,5.382419785E0
8.718310042E0,1.870061188E0,-6.696773987E0,2.914439392E0,7.539089311E0
8.728284042E0,2.566712494E0,-1.000354752E1,1.773212585E0,1.047870502E1
8.738258042E0,2.667602692E0,-1.367017273E1,2.576741638E0,1.416436811E1
8.748232042E0,2.424807587E0,-2.117751114E1,2.723586273E0,2.148917383E1
8.758206042E0,1.215771790E0,-3.749433014E1,9.963281250E-1,3.752726427E1
8.768180042E0,-2.289488983E0,-5.684010040E1,-1.968556366E0,5.692024234E1
8.778154042E0,-8.172255707E0,-7.183636551E1,-6.748566284E0,7.261399534E1
8.788128042E0,-1.033450928E1,-7.468075058E1,-9.188791809E0,7.595031589E1
8.798102042E0,-6.681505737E0,-6.037305359E1,-9.559421082E0,6.148927264E1
8.808076042E0,-5.858068085E0,-4.317860962E1,-6.060896301E0,4.399367857E1
8.818050042E0,-5.323379974E0,-2.840014160E1,-3.247047729E0,2.907661838E1
8.828024042E0,-4.401896210E0,-1.788974808E1,-1.050814819E0,1.845329207E1
8.837998042E0,-1.117321518E1,-9.476044464E0,1.700538712E1,2.244592050E1
8.847971042E0,-1.416534302E1,-2.051034851E0,5.170727417E1,5.365170910E1
8.857945042E0,-3.525768127E0,-2.802023163E0,2.935725128E1,2.970068312E1
8.867919042E0,-4.485272827E0,-9.684710541E0,3.224893799E0,1.114949463E1
8.877893042E0,-5.974525909E0,-1.245814316E1,-1.172960815E0,1.386636679E1
8.887867042E0,-6.512656860E0,-1.232372269E1,-3.488495636E0,1.436866180E1
8.897841042E0,-6.782096558E0,-1.080303497E1,-5.347330170E0,1.383099195E1
8.907815042E0,-6.359525299E0,-9.808054047E0,-6.855593719E0,1.355140773E1
8.917789042E0,-4.805606689E0,-9.532177734E0,-5.956263885E0,1.222429333E1
8.927763042E0,-3.232976990E0,-9.120384064E0,-5.148842926E0,1.096102774E1
8.937737042E0,-2.190694427E0,-8.742270355E0,-9.908345490E0,1.339409360E1
8.947711042E0,8.689430237E-1,-6.604715424E0,-1.115615067E1,1.299373024E1
8.957685042E0,4.012406158E0,-6.926097107E-1,-3.193159790E0,5.174493293E0
8.967659042E0,4.902155914E0,-8.604107666E-1,-7.641609192E-1,5.035412715E0
8.977633042E0,3.786226501E0,-2.402503967E0,-9.008267212E-1,4.573732088E0
8.987607042E0,2.894381104E0,-2.531236267E0,-1.415456543E0,4.097330379E0
8.997581042E0,2.118544464E0,-2.124532013E0,-1.052162018E0,3.179451499E0
9.007555042E0,1.507515106E0,-1.693428497E0,-1.444496155E0,2.688284027E0
9.017528042E0,1.261277161E0,-1.379531250E0,-2.575095062E0,3.181986978E0
9.027502042E0,1.248553619E0,-1.076411591E0,-3.448678436E0,3.822424755E0
9.037476042E0,1.852248230E0,-1.055604858E0,-2.319875793E0,3.150706083E0
9.047450042E0,2.935994568E0,-1.162183228E0,-3.495231628E-1,3.176932545E0
9.057424042E0,3.711681519E0,-1.330882416E0,8.379574585E-1,4.031128924E0
9.067398042E0,3.921395416E0,-1.635498962E0,1.320853271E0,4.449365374E0
9.077372042E0,3.825444946E0,-2.298470306E0,1.252894592E0,4.635379126E0
9.087346042E0,3.594774628E0,-3.407064972E0,9.933343506E-1,5.051456174E0
9.097320042E0,3.232378235E0,-4.807852020E0,1.424138489E0,5.965893105E0
9.107294042E0,2.714904327E0,-6.328988800E0,2.640059967E0,7.375413301E0
9.117268042E0,2.059567108E0,-7.963889008E0,3.505709839E0,8.941775342E0
9.127242042E0,1.451980591E0,-9.754315796E0,3.540587311E0,1.047810492E1
9.137216042E0,9.675878906E-1,-1.196566727E1,3.009491730E0,1.237620539E1
9.147190042E0,4.652325439E-1,-1.486049744E1,2.199675751E0,1.502961739E1
9.157164042E0,-2.173480225E-1,-1.830603241E1,1.235231323E0,1.834894709E1
9.167138042E0,-1.136137390E0,-2.204810074E1,5.704637146E-1,2.208472285E1
9.177111042E0,-2.289788361E0,-2.582339996E1,2.716850281E-1,2.592614374E1
9.187085042E0,-3.684587860E0,-2.885459656E1,3.622467041E-2,2.908891958E1
9.197059042E0,-4.966671753E0,-2.928135910E1,-4.282594299E-1,2.970268044E1
9.207033042E0,-5.730982361E0,-2.453248444E1,-7.860154724E-1,2.520525286E1
9.217007042E0,-5.644462280E0,-1.822340424E1,-1.489851837E0,1.913562319E1
9.226981042E0,-5.266348572E0,-1.328053299E1,-2.459984436E0,1.449684473E1
9.236955042E0,-4.802014160E0,-9.387279053E0,-3.183130646E0,1.101420304E1
9.246929042E0,-4.355343018E0,-6.732998657E0,-3.499422913E0,8.749185359E0
9.256903042E0,-4.023034058E0,-5.129682770E0,-3.323987732E0,7.317604990E0
9.266877042E0,-3.862118683E0,-4.025429077E0,-2.879412231E0,6.277822455E0
9.276851042E0,-3.930376740E0,-3.176244965E0,-2.070793762E0,5.461188533E0
9.286825042E0,-4.080514526E0,-2.444267120E0,-1.230740662E0,4.913223293E0
9.296799042E0,-4.229903870E0,-1.929337921E0,-6.182144165E-1,4.690055503E0
9.306773042E0,-4.414320374E0,-1.487307129E0,-2.062710571E-1,4.662708934E0
9.316747042E0,-4.368365936E0,-1.355431366E0,4.864883423E-2,4.574077158E0
9.326721042E0,-4.233496399E0,-1.482966156E0,1.332229614E-1,4.487697487E0
9.336694042E0,-3.978277130E0,-2.313588867E0,7.888595581E-2,4.602782350E0
9.346668042E0,-3.282224579E0,-3.708088989E0,1.344204712E-1,4.953886454E0
9.356642042E0,-2.327210541E0,-4.624782715E0,1.709445190E-1,5.180129930E0
9.366616042E0,-1.629062347E0,-5.225483551E0,1.110690308E-1,5.474656044E0
9.376590042E0,-8.318202209E-1,-5.677393799E0,1.420545959E-1,5.739765216E0
9.386564042E0,4.293072510E-1,-5.893544312E0,9.131011963E-1,5.979291184E0
9.396538042E0,2.654579773E0,-5.779331818E0,3.064577179E0,7.059681531E0
9.406512042E0,3.956572266E0,-5.257666626E0,4.029919739E0,7.716072547E0
9.416486000E0,3.762875061E0,-4.777465210E0,2.999612274E0,6.780934770E0
9.426460000E0,3.609444122E0,-4.667743378E0,1.728605347E0,6.148495064E0
9.436434000E0,3.394790497E0,-4.822521515E0,2.361489258E0,6.352790552E0
9.446408000E0,2.745590515E0,-5.835764465E0,1.604513397E0,6.645967004E0
9.456382000E0,1.786235504E0,-7.223229218E0,-1.954785004E0,7.693299813E0
9.466356000E0,1.511556702E0,-8.537047119E0,-3.617227936E0,9.394163886E0
9.476330000E0,1.718576202E0,-9.948162689E0,-3.057841187E0,1.054845191E1
9.486304000E0,1.793719940E0,-1.177092224E1,-3.494034119E0,1.240888053E1
9.496277000E0,1.240769806E0,-1.440304871E1,-5.065316620E0,1.531811849E1
9.506251000E0,1.883084106E-1,-1.725506790E1,-4.981191559E0,1.796065416E1
9.516225000E0,-1.252595215E0,-2.002775208E1,-4.071084137E0,2.047568250E1
9.526199000E0,-2.862048340E0,-2.234089188E1,-3.704646149E0,2.282610728E1
9.536173000E0,-4.469854889E0,-2.402249496E1,-2.887196045E0,2.460479157E1
9.546147000E0,-6.055357819E0,-2.576591949E1,-2.229164429E0,2.656161026E1
9.556121000E0,-7.969577179E0,-2.783880890E1,-1.721270599E0,2.900820942E1
9.566095000E0,-1.062475571E1,-2.997262161E1,-5.393284607E-1,3.180462789E1
9.576069000E0,-1.193019104E1,-3.502775940E1,1.449735260E0,3.703208230E1
9.586043000E0,-1.364322876E1,-4.050576782E1,2.370769958E0,4.280742305E1
9.596017000E0,-1.776281204E1,-4.125915115E1,6.361620941E0,4.536854931E1
9.605991000E0,-1.914952835E1,-3.603456573E1,1.195159653E1,4.252099509E1
9.615965000E0,-1.336405930E1,-2.928480194E1,5.749394073E0,3.269943788E1
9.625939000E0,-9.261091461E0,-2.509082336E1,1.004710693E0,2.676427985E1
9.635913000E0,-7.241042175E0,-2.103845032E1,-1.956281891E0,2.233553497E1
9.645887000E0,-5.343737640E0,-1.803344925E1,-4.410877533E0,1.931881633E1
9.655860000E0,-3.236419830E0,-1.737511826E1,-4.513713684E0,1.824123787E1
9.665834000E0,-5.022056580E-1,-1.612342117E1,-4.114493866E0,1.664770196E1
9.675808000E0,2.383493500E0,-1.315075287E1,-5.098248138E0,1.430438661E1
9.685782000E0,3.482657776E0,-1.000130219E1,-4.116888885E0,1.136238200E1
9.695756000E0,4.140539703E0,-6.117478638E0,-1.590592346E0,7.556295252E0
9.705730000E0,5.218448181E0,-1.754950562E0,2.546354828E0,6.065968661E0
9.715704000E0,7.226522369E0,1.509910126E0,6.659202118E0,9.942204333E0
9.725678000E0,8.745114441E0,2.948418732E0,8.398435364E0,1.247813753E1
9.735652000E0,8.982670441E0,1.965562592E0,7.655530243E0,1.196490484E1
9.745626000E0,9.323960724E0,2.336640930E-1,4.242926788E0,1.024662238E1
9.755600000E0,9.958790588E0,-6.346801758E-1,9.470805359E-1,1.002383611E1
9.765574000E0,1.054317535E1,-5.629792786E-1,-1.132395172E0,1.061874809E1
9.775548000E0,1.065544189E1,-3.933819580E-1,-2.365830231E0,1.092201190E1
9.785522000E0,1.085482727E1,5.463638306E-2,-2.813249817E0,1.121359152E1
9.795496000E0,1.106439148E1,5.403762817E-1,-2.197280731E0,1.129339665E1
9.805470000E0,1.026699966E1,1.670526123E-1,-8.502319336E-1,1.030349858E1
9.815444000E0,8.552165680E0,-1.809736633E-1,-5.777984619E-2,8.554275410E0
9.825417000E0,6.379134521E0,5.239105225E-3,1.776805115E-1,6.381610694E0
9.835391000E0,4.240831146E0,6.165678406E-1,5.915698242E-1,4.326055891E0
9.845365000E0,2.259102173E0,1.160386963E0,1.178050232E0,2.799614773E0
9.855339000E0,9.318122864E-1,1.215472412E0,1.716031494E0,2.300089435E0
9.865313000E0,3.339555359E-1,8.201445007E-1,1.888622589E0,2.085919123E0
9.875287000E0,-7.858657837E-2,4.035607910E-1,1.749861145E0,1.797512500E0
9.885261000E0,-3.188369751E-1,1.227447510E-1,1.512305145E0,1.550416119E0
9.895235000E0,-4.968168640E-1,-7.005432129E-2,9.978250122E-1,1.116865865E0
9.905209000E0,-6.580316162E-1,-2.522254944E-1,4.682263184E-1,8.460846253E-1
9.915183000E0,-8.306227112E-1,-3.960763550E-1,5.224136353E-2,9.217047940E-1
9.925157000E0,-1.019679565E0,-5.331912231E-1,-3.375480652E-1,1.199157201E0
9.935131000E0,-1.200503540E0,-7.059320068E-1,-6.216572571E-1,1.525125075E0
9.945105000E0,-1.354233856E0,-8.848100281E-1,-7.545808411E-1,1.785001504E0
9.955079000E0,-1.440155182E0,-9.945318604E-1,-8.451425171E-1,1.943555104E0
9.965053000E0,-1.501377869E0,-1.159788208E0,-9.566606140E-1,2.124722034E0
9.975026000E0,-1.520238647E0,-1.285377045E0,-1.030756531E0,2.241824863E0
9.985000000E0,-1.418899384E0,-1.429078217E0,-1.107846222E0,2.298448011E0
9.994974000E0,-1.071920929E0,-1.548978882E0,-1.153950348E0,2.209061217E0
1.000494800E1,-5.442681885E-1,-1.588945770E0,-1.242865448E0,2.089423615E0
1.001492200E1,4.206253052E-2,-1.644929352E0,-1.477277985E0,2.211314558E0
1.002489600E1,6.641688538E-1,-1.725312195E0,-2.230960693E0,2.897414028E0
1.003487000E1,1.427880707E0,-2.434237976E0,-4.896916809E0,5.651915788E0
1.004484400E1,3.124153290E0,-4.478686523E0,-5.640869751E0,7.851011292E0
1.005481800E1,3.756737823E0,-6.044280853E0,2.241738281E0,7.461353807E0
1.006479200E1,1.179247742E0,-8.385861511E0,4.139342194E0,9.425892654E0
1.007476600E1,3.813020782E0,-1.101888611E1,4.066294098E0,1.234867306E1
1.008474000E1,6.236780548E0,-1.441098221E1,6.661597137E0,1.705727752E1
1.009471400E1,6.738237762E0,-2.268023621E1,6.386768646E0,2.450689242E1
1.010468800E1,7.233557739E0,-3.694602036E1,3.681444397E0,3.782705131E1
1.011466200E1,5.244793396E0,-4.991879333E1,1.202150116E0,5.020795705E1
1.012463600E1,7.354206848E-1,-5.738975739E1,-4.345912628E0,5.755877043E1
1.013461000E1,-4.192332001E0,-5.596666672E1,-7.810458069E0,5.666433346E1
1.014458300E1,-4.929399261E0,-4.602059967E1,-5.448370056E0,4.660342592E1
1.015455700E1,-5.292993164E0,-3.566947495E1,-4.378544769E0,3.632490707E1
1.016453100E1,-5.627397766E0,-2.625854507E1,-3.578757935E0,2.709218159E1
1.017450500E1,-5.596262512E0,-1.878563507E1,-2.914589081E0,1.981698939E1
1.018447900E1,-5.454058228E0,-1.340013428E1,-2.166893921E0,1.462893636E1
1.019445300E1,-5.360353088E0,-9.908794556E0,-5.483097839E-1,1.127910628E1
1.020442700E1,-8.197104034E0,-8.136480103E0,1.357422226E1,1.782285984E1
1.021440100E1,-1.023242157E1,-8.694968719E0,2.625719788E1,2.949144575E1
1.022437500E1,-7.852221222E0,-1.224947708E1,1.114522339E1,1.832820426E1
1.023434900E1,-7.188651123E0,-1.497396149E1,-8.750802612E-1,1.663315944E1
1.024432300E1,-6.599027252E0,-1.428210022E1,-8.546926575E0,1.790462234E1
1.025429700E1,-4.459526367E0,-1.053030212E1,-1.186088516E1,1.647589861E1
1.026427100E1,-2.012265472E0,-9.709109802E0,-4.695286102E0,1.097094969E1
1.027424500E1,-4.854405212E-1,-8.619375916E0,-1.512155457E0,8.764468483E0
1.028421900E1,-4.567002869E-1,-7.123686218E0,2.556084595E0,7.582153318E0
1.029419300E1,-2.754272461E-1,-6.112239532E0,3.790417786E0,7.197402258E0
1.030416600E1,4.131408691E-1,-3.879482574E0,2.826721802E0,4.817823842E0
1.031414000E1,8.738827515E-1,-3.005749512E0,1.493594055E0,3.468288395E0
1.032411400E1,1.246158600E0,-2.220632172E0,-6.795867920E-2,2.547299919E0
1.033408800E1,1.438209229E0,-1.530417480E0,-1.042432251E0,2.344629704E0
1.034406200E1,1.616937561E0,-7.306306458E-1,-1.272952881E0,2.183739282E0
1.035403600E1,1.706002350E0,-1.607656860E-1,-8.345146179E-1,1.905965443E0
1.036401000E1,1.911225586E0,-8.981323242E-2,-8.689430237E-1,2.101407061E0
1.037398400E1,2.276466064E0,-3.403921509E-1,-1.181792450E0,2.587430763E0
1.038395800E1,2.422711945E0,-4.686753845E-1,-8.393046570E-1,2.606457767E0
1.039393200E1,2.744542694E0,-1.154249725E0,-6.447093201E-1,3.046384272E0
1.040390600E1,2.866688690E0,-2.232756958E0,-4.890330505E-1,3.666368913E0
1.041388000E1,2.695145416E0,-3.445385284E0,-7.069798279E-1,4.431061842E0
1.042385412E1,2.500101013E0,-4.772226105E0,-7.485932922E-1,5.439213085E0
1.043382813E1,2.212548981E0,-6.028413849E0,-8.035290527E-1,6.471692627E0
1.044380213E1,1.750010834E0,-7.469766541E0,-7.649093628E-1,7.710060727E0
1.045377613E1,1.226848755E0,-9.238488464E0,-5.129832458E-1,9.333701237E0
1.046374913E1,6.942562866E-1,-1.142828476E1,-2.429447937E-1,1.145193025E1
1.047372313E1,1.221459961E-1,-1.429123123E1,-5.688171387E-3,1.429175434E1
1.048369712E1,-5.276527405E-1,-1.813059723E1,2.609074402E-1,1.814015011E1
1.049367113E1,-1.368903351E0,-2.288575882E1,1.191522217E-1,2.292697212E1
1.050364513E1,-2.251018982E0,-2.784539520E1,-7.674540710E-1,2.794677273E1
1.051361913E1,-2.942580872E0,-2.981035904E1,-1.183139648E0,2.997859416E1
1.052359313E1,-3.428470459E0,-2.373599075E1,6.746470642E-1,2.399180726E1
1.053356712E1,-4.607119446E0,-1.621592880E1,3.698658600E0,1.725867816E1
1.054354113E1,-5.260810089E0,-1.082189575E1,6.430477753E0,1.364333517E1
1.055351513E1,-3.785178680E0,-6.905739441E0,5.335654449E0,9.512414166E0
1.056348913E1,-2.426005096E0,-4.600832520E0,2.906655579E0,5.958339303E0
1.057346313E1,-2.131417694E0,-3.274590454E0,1.233734436E0,4.097314326E0
1.058343712E1,-2.158511353E0,-2.537074127E0,-7.035369873E-3,3.331060774E0
1.059341113E1,-2.128872986E0,-2.013462982E0,-7.670050049E-1,3.028932163E0
1.060338513E1,-2.132914581E0,-1.685944061E0,-1.246757355E0,2.991009176E0
1.061335913E1,-2.233655090E0,-1.573827209E0,-1.538051605E0,3.135562133E0
1.062333213E1,-2.654729462E0,-2.565964050E0,-1.828747101E0,4.120203391E0
1.063330613E1,-2.957250366E0,-4.945116577E0,-1.559307404E0,5.969166380E0
1.064328012E1,-2.834804993E0,-7.058721313E0,-1.022373962E0,7.675084003E0
1.065325413E1,-2.789149933E0,-9.144633636E0,-7.607180786E-1,9.590744168E0
1.066322813E1,-2.714904327E0,-1.124835892E1,-5.409750366E-1,1.158399490E1
1.067320213E1,-2.549348602E0,-1.290676025E1,-5.096900940E-1,1.316599493E1
1.068317613E1,-2.176473999E0,-1.368559067E1,-6.971003723E-1,1.387509928E1
1.069315012E1,-1.427731018E0,-1.285841080E1,-8.634045410E-1,1.296621038E1
1.070312413E1,-4.085005188E-1,-1.080393311E1,-3.890409851E-1,1.081865038E1
1.071309813E1,2.080972595E0,-8.741222534E0,2.757715302E0,9.399170815E0
1.072307213E1,4.479584656E0,-6.483617249E0,5.817652130E0,9.795358473E0
1.073304613E1,3.701203308E0,-4.146377563E0,5.727240143E0,7.980766409E0
1.074302012E1,3.919299774E0,-1.280587006E0,7.553891602E0,8.605933542E0
1.075299413E1,4.566853180E0,-1.143921204E0,4.295168152E0,6.372846549E0
1.076296813E1,4.464915161E0,-2.456242218E0,-1.744472351E0,5.386258164E0
1.077294213E1,4.683610382E0,-3.361709290E0,-1.101858673E0,5.869530483E0
1.078291613E1,3.812721405E0,-5.341791687E0,8.158035278E-2,6.563401427E0
1.079288913E1,2.563119965E0,-7.302115173E0,-1.249900818E0,7.839178657E0
1.080286312E1,1.325194244E0,-8.630602570E0,-1.413660278E0,8.845443792E0
1.081283713E1,6.569837952E-1,-8.979526978E0,-5.581892395E-1,9.020815244E0
1.082281113E1,-2.399510193E-1,-9.595945129E0,-5.002597046E-1,9.611971660E0
1.083278513E1,-1.835483093E0,-1.071037766E1,-1.418001251E0,1.095864568E1
1.084275913E1,-2.990181885E0,-1.181612823E1,-2.262844391E0,1.239687618E1
1.085273312E1,-3.673810272E0,-1.297636551E1,-2.846929779E0,1.378361175E1
1.086270713E1,-4.071084137E0,-1.478505432E1,-2.864742737E0,1.560058679E1
1.087268113E1,-4.486769714E0,-1.693757812E1,-2.060465240E0,1.764251037E1
1.088265513E1,-5.323379974E0,-1.852038666E1,-1.645827484E0,1.934041996E1
1.089262913E1,-6.098767548E0,-1.935550003E1,-9.030720520E-1,2.031368716E1
1.090260312E1,-6.373745728E0,-1.916090469E1,7.461982727E-1,2.020697194E1
1.091257713E1,-6.570586395E0,-1.832863541E1,1.064436493E0,1.949985914E1
1.092255113E1,-7.050039368E0,-1.924517944E1,6.819818115E-1,2.050719596E1
1.093252513E1,-7.745343475E0,-2.171983337E1,9.521699524E-1,2.307917102E1
1.094249913E1,-8.895401917E0,-2.550381454E1,1.967807922E0,2.708218971E1
1.095247213E1,-9.686806183E0,-3.168521027E1,4.411775665E0,3.342529773E1
1.096244612E1,-9.714348907E0,-3.845143982E1,7.369175720E0,4.033840044E1
1.097242013E1,-9.198371887E0,-4.209531235E1,8.110583954E0,4.384526131E1
1.098239413E1,-6.924450531E0,-3.957545242E1,6.308631134E0,4.066894732E1
1.099236813E1,-3.482208710E0,-3.413965622E1,3.879332886E0,3.453536054E1
1.100234213E1,-1.009800110E0,-2.922447739E1,1.038989410E0,2.926037036E1
1.101231612E1,7.081773376E-1,-2.439596832E1,-1.846260681E0,2.447597728E1
1.102229013E1,1.778601379E0,-2.013103729E1,-3.574416962E0,2.052312213E1
1.103226413E1,1.973945160E0,-1.752795044E1,-4.335434418E0,1.816374129E1
1.104223813E1,2.624941406E0,-1.634211639E1,-4.617597656E0,1.718363447E1
1.105221213E1,3.767964478E0,-1.511481857E1,-5.555397491E0,1.653837169E1
1.106218612E1,3.869902496E0,-1.336914871E1,-6.258485413E0,1.526037097E1
1.107216013E1,3.315156097E0,-1.146600632E1,-5.721402283E0,1.323608722E1
1.108213413E1,2.917283478E0,-9.686207428E0,-4.739743652E0,1.117131716E1
1.109210813E1,2.060914307E0,-7.513475647E0,-3.750301208E0,8.646643466E0
1.110208213E1,1.071172485E0,-4.316723328E0,-3.798800354E0,5.849136253E0
1.111205513E1,6.385720825E-1,-1.428479462E0,-4.256997528E0,4.535455416E0
1.112202912E1,4.335883484E0,-1.188528442E-1,6.772366791E0,8.042323267E0
1.113200313E1,1.068672684E1,1.933978271E0,1.631577118E1,1.959976509E1
1.114197713E1,1.092937225E1,4.016896820E0,1.776505737E1,2.124108993E1
1.115195113E1,9.554631042E0,4.388124847E0,1.297397049E1,1.669941688E1
1.116192513E1,8.244405670E0,3.958518219E0,5.191953278E0,1.051648564E1
1.117189912E1,7.144193573E0,3.739673309E0,9.126521301E-1,8.115269076E0
1.118187313E1,6.893764343E0,3.025957489E0,5.998027039E-1,7.552494212E0
1.119184713E1,6.691834259E0,2.031874695E0,6.975494385E-1,7.028209996E0
1.120182113E1,6.166576538E0,1.147513733E0,-1.408570862E-1,6.274017428E0
1.121179513E1,5.481151886E0,4.046086121E-1,-1.424437866E0,5.677654213E0
1.122176912E1,4.708009644E0,-1.604663086E-1,-1.838327179E0,5.056733240E0
1.123174313E1,3.668870544E0,-2.580633545E-1,-1.700763245E0,4.052135657E0
1.124171713E1,2.661315765E0,-1.032852173E-2,-1.377435608E0,2.996671009E0
1.125169113E1,1.936522980E0,2.607577515E-1,-1.117575989E0,2.251020201E0
1.126166513E1,1.412612457E0,3.775149536E-1,-1.290466461E0,1.950203882E0
1.127163913E1,8.945397949E-1,3.129991150E-1,-1.574276276E0,1.837529777E0
1.128161212E1,3.528163147E-1,1.532812500E-1,-1.754501495E0,1.796176492E0
1.129158613E1,-1.935475159E-1,-2.694396973E-2,-1.968406677E0,1.978082775E0
1.130156013E1,-7.521858215E-1,-2.137554932E-1,-2.121987305E0,2.261482930E0
1.131153413E1,-1.193019104E0,-3.463796997E-1,-2.249372406E0,2.569620536E0
1.132150813E1,-1.726509705E0,-5.111869812E-1,-2.252515869E0,2.883743336E0
1.133148212E1,-2.619103546E0,-8.255332947E-1,-2.090103607E0,3.451049361E0
1.134145613E1,-3.551065521E0,-1.244062958E0,-1.719923401E0,4.137136145E0
1.135143013E1,-3.644471283E0,-1.464704132E0,-1.268611908E0,4.127578624E0
1.136140413E1,-3.592379608E0,-1.519041138E0,-5.321434021E-1,3.936477337E0
1.137137813E1,-3.552263031E0,-1.464704132E0,2.788700867E-1,3.852492617E0
1.138135212E1,-3.324436798E0,-1.262624359E0,9.448352051E-1,3.679512721E0
1.139132613E1,-3.094514923E0,-9.686357117E-1,1.392105103E0,3.528772360E0
1.140130013E1,-2.744842072E0,-5.495072937E-1,1.609153748E0,3.228853054E0
1.141127413E1,-2.205363922E0,-1.862127686E-1,1.685644684E0,2.782032211E0
1.142124742E1,-1.406475220E0,-7.604187012E-2,1.964365082E0,2.417164679E0
1.143122142E1,-9.744735718E-2,-1.913021851E-1,3.433859253E0,3.440564181E0
1.144119442E1,1.804198151E0,-5.869294739E-1,7.052284698E0,7.303036125E0
1.145116842E1,3.523223419E0,-1.218615875E0,9.155710602E0,9.885603904E0
1.146114242E1,2.704575806E0,-2.079176331E0,3.345243530E0,4.777903178E0
1.147111642E1,1.598675537E0,-3.566184082E0,2.944526825E0,4.893227013E0
1.148109042E1,1.697320404E0,-4.538711700E0,3.427422638E0,5.935320243E0
1.149106442E1,1.689386902E0,-7.812254333E0,1.694326630E0,8.170439927E0
1.150103842E1,1.964215393E0,-1.308533890E1,-6.024971008E-1,1.324564981E1
1.151101242E1,2.604134674E0,-2.003014709E1,-3.763174438E-1,2.020222574E1
1.152098642E1,2.060764618E0,-3.163042419E1,-3.908222809E0,3.193751229E1
1.153096042E1,-7.237449646E-1,-4.782659409E1,-7.540569305E0,4.842279519E1
1.154093442E1,-3.505859528E0,-5.960006104E1,-7.155420227E0,6.013034479E1
1.155090842E1,-3.668122101E0,-6.594192307E1,-9.835147705E0,6.677216836E1
1.156088242E1,-1.384920044E0,-6.280804001E1,-1.287322998E1,6.412868269E1
1.157085642E1,-2.095642090E-2,-4.692187546E1,-9.206604767E0,4.781657042E1
1.158083042E1,-1.591640167E0,-3.247047729E1,-3.029100952E0,3.265027820E1
1.159080442E1,-3.521427155E0,-2.087603806E1,2.182162170E0,2.128312115E1
1.160077742E1,-1.527857803E1,-9.591454468E0,3.768458450E1,4.177988577E1
1.161075142E1,-8.361761627E0,-2.782563629E0,5.185786102E1,5.260132572E1
1.162072542E1,-2.510429535E0,-6.213878174E0,1.020502853E1,1.220889617E1
1.163069942E1,-5.316045227E0,-1.055185730E1,-2.835104370E0,1.215071381E1
1.164067342E1,-6.174659729E0,-1.130149841E1,-3.847000122E-1,1.288403210E1
1.165064742E1,-6.845265198E0,-1.144759460E1,-2.615960083E0,1.359221560E1
1.166062142E1,-7.315138092E0,-1.176104279E1,-4.479285278E0,1.455669500E1
1.167059542E1,-6.449787598E0,-1.212523544E1,-5.701343994E0,1.487032004E1
1.168056942E1,-4.442910919E0,-1.176224030E1,-5.356760559E0,1.366691764E1
1.169054342E1,-3.551364899E0,-1.013991394E1,-2.786605225E0,1.109933404E1
1.170051742E1,-3.187022552E0,-7.754025421E0,-4.458478546E0,9.495264816E0
1.171049142E1,-1.800156555E0,-6.524931335E0,-8.164471893E0,1.060537099E1
1.172046542E1,-2.119592285E-1,-6.449637909E0,-5.910159760E0,8.750585366E0
1.173043942E1,7.587721252E-1,-6.805148621E0,-2.944526825E0,7.453591155E0
1.174041342E1,1.261726227E0,-6.284082184E0,-2.009421387E0,6.717098799E0
1.175038742E1,1.860481110E0,-5.336253204E0,-1.594933319E0,5.872035466E0
1.176036042E1,2.607876892E0,-4.100872192E0,-8.101153564E-1,4.926911965E0
1.177033442E1,3.350332947E0,-2.726430359E0,5.104385376E-2,4.319810046E0
1.178030842E1,3.986510010E0,-1.311722260E0,7.117698669E-1,4.256699859E0
1.179028242E1,4.313579865E0,-8.158035278E-2,1.446292419E0,4.550317392E0
1.180025642E1,4.471202087E0,8.901988220E-1,2.376009064E0,5.140964999E0
1.181023042E1,4.606221313E0,1.569635925E0,3.389551392E0,5.930437620E0
1.182020442E1,4.570745087E0,1.724414063E0,4.305646362E0,6.511828092E0
1.183017842E1,4.243974609E0,9.407936096E-1,5.074747009E0,6.682025914E0
1.184015242E1,2.742896118E0,-1.631157990E0,5.084626465E0,6.003130999E0
1.185012642E1,1.542242889E0,-3.683090973E0,4.216581573E0,5.807170775E0
1.186010042E1,1.078956299E0,-4.876858521E0,3.019520874E0,5.836557378E0
1.187007442E1,8.273295593E-1,-6.277495880E0,1.936373291E0,6.621251411E0
1.188004842E1,7.071295166E-1,-8.182135162E0,1.404678955E0,8.331895999E0
1.189002242E1,5.141807556E-1,-1.079046112E1,1.241967316E0,1.087386389E1
1.189999642E1,5.733078003E-2,-1.405921371E1,1.038690033E0,1.409764711E1
1.190997042E1,-6.981481934E-1,-1.770578064E1,6.218069458E-1,1.773044621E1
1.191994342E1,-1.689985657E0,-2.152853119E1,-1.546284485E-1,2.159531469E1
1.192991742E1,-2.755619659E0,-2.501493118E1,-9.562115479E-1,2.518441110E1
1.193989142E1,-3.667373657E0,-2.748629196E1,-1.476978607E0,2.776917970E1
1.194986542E1,-4.358935547E0,-2.784135361E1,-1.760489044E0,2.823544955E1
1.195983942E1,-4.647535400E0,-2.427756454E1,-1.779948578E0,2.478241196E1
1.196981342E1,-4.477489014E0,-1.856753860E1,-1.495390320E0,1.915822512E1
1.197978742E1,-4.247417450E0,-1.418285660E1,-1.394500122E0,1.487072987E1
1.198976142E1,-4.100123749E0,-1.069361252E1,-1.371448059E0,1.153452354E1
1.199973542E1,-3.898043976E0,-7.963290253E0,-1.386267242E0,8.973877387E0
1.200970942E1,-3.602558441E0,-5.976022797E0,-1.374741211E0,7.112045359E0
1.201968342E1,-3.340303802E0,-4.489464111E0,-1.123114471E0,5.707390263E0
1.202965742E1,-3.139571228E0,-3.370391235E0,-6.661148071E-1,4.654047004E0
1.203963142E1,-3.021616516E0,-2.581381989E0,-1.754351807E-1,3.977999101E0
1.204960542E1,-2.986589355E0,-2.075434113E0,3.561094666E-1,3.654306594E0
1.205957942E1,-3.261118469E0,-1.771116943E0,1.211730194E0,3.903849249E0
1.206955342E1,-3.791764984E0,-1.721420288E0,3.374283142E0,5.359716058E0
1.207952642E1,-3.544778595E0,-2.378553772E0,5.629792786E0,7.065234613E0
1.208950042E1,-2.412832489E0,-3.573069763E0,4.538112946E0,6.259637151E0
1.209947442E1,-1.702858887E0,-3.944746857E0,2.882256317E0,5.173795283E0
1.210944842E1,-1.431922302E0,-4.048930206E0,1.726509705E0,4.628722616E0
1.211942242E1,-1.251996460E0,-4.167184296E0,7.596702576E-1,4.417014715E0
1.212939642E1,-9.800120544E-1,-4.153862000E0,-7.364685059E-2,4.268538040E0
1.213937042E1,-4.183799744E-1,-4.042643280E0,-9.837542725E-1,4.181600048E0
1.214934442E1,5.981561279E-1,-3.983665924E0,-1.991608429E0,4.493761129E0
1.215931842E1,1.753303986E0,-4.022884369E0,-3.012036438E0,5.322596830E0
1.216929242E1,3.002456360E0,-4.273912354E0,-2.400707703E0,5.748431827E0
1.217926642E1,4.409380646E0,-4.603676605E0,-1.384920044E0,6.523379453E0
1.218924042E1,5.825585632E0,-5.945186920E0,-3.858825531E0,9.174596991E0
1.219921442E1,6.860982513E0,-7.127428436E0,-2.917732544E0,1.031438221E1
1.220918842E1,6.995702362E0,-8.408464508E0,-5.149291992E-1,1.095021822E1
1.221916242E1,5.979914703E0,-1.000220032E1,8.663983154E-1,1.168563379E1
1.222913642E1,2.872526550E0,-1.140223892E1,-4.707710266E-1,1.176792618E1
1.223910942E1,-1.791773987E-1,-1.224124420E1,-1.308429108E0,1.231227643E1
1.224908342E1,-2.069446564E0,-1.366433487E1,5.352868652E-1,1.383051657E1
1.225905742E1,-3.890709229E0,-1.575877945E1,1.922751617E0,1.634544958E1
1.226903142E1,-5.580245819E0,-1.850377121E1,2.236499176E0,1.945586341E1
1.227900542E1,-6.740333405E0,-2.081915634E1,2.517464905E0,2.202741462E1
1.228897942E1,-7.679031372E0,-2.166459824E1,2.319127350E0,2.310196293E1
1.229895342E1,-7.959997101E0,-2.162762512E1,1.677411804E0,2.310691309E1
1.230892742E1,-8.024063873E0,-2.159619049E1,9.523196411E-1,2.305835982E1
1.231890142E1,-8.231981506E0,-2.239477982E1,3.927832031E-1,2.386306689E1
1.232887542E1,-8.633596344E0,-2.444027618E1,-1.010398865E-1,2.592057667E1
1.233884942E1,-9.333540802E0,-2.766157745E1,-5.351371765E-1,2.919870242E1
1.234882342E1,-1.025577301E1,-3.175406708E1,-1.092727661E0,3.338705902E1
1.235879742E1,-1.114043335E1,-3.580269791E1,-1.567240906E0,3.752863809E1
1.236877142E1,-1.209604614E1,-3.890320038E1,-1.576222229E-1,4.074062072E1
1.237874542E1,-1.508248581E1,-4.014561676E1,7.982899475E0,4.362199683E1
1.238871942E1,-1.433808380E1,-3.543012268E1,1.168814438E1,3.996857465E1
1.239869242E1,-1.057865158E1,-2.783162384E1,5.567372589E0,3.029030856E1
1.240866642E1,-8.511150970E0,-2.592204483E1,-7.110214233E-1,2.729281317E1
1.241864025E1,-5.761069794E0,-2.321342743E1,-2.807411957E0,2.408183340E1
1.242861425E1,-2.489173737E0,-1.957015366E1,-3.527115326E0,2.004064476E1
1.243858825E1,1.631607056E-1,-1.783600983E1,-3.229234772E0,1.812671579E1
1.244856225E1,2.891387329E0,-1.549472855E1,-4.780309296E0,1.647112899E1
1.245853625E1,5.074597321E0,-1.235395981E1,-5.110821991E0,1.430008260E1
1.246851025E1,6.546486511E0,-8.801846466E0,-4.832850037E0,1.198688560E1
1.247848425E1,8.249495087E0,-5.166506195E0,-4.194128265E0,1.059894652E1
1.248845825E1,9.385183411E0,-2.702929230E0,-3.131787415E0,1.025648997E1
1.249843225E1,1.038046371E1,-1.647773438E0,-2.577340393E0,1.082182368E1
1.250840625E1,1.209170517E1,-9.526190186E-1,-3.643423462E-1,1.213464306E1
1.251838025E1,1.382974091E1,6.388714600E-1,2.600991211E0,1.408669747E1
1.252835425E1,1.436667435E1,3.112327881E0,3.973187714E0,1.522741400E1
1.253832825E1,1.207853256E1,4.503385162E0,5.403912506E0,1.397761414E1
1.254830225E1,1.020053787E1,5.800288239E0,6.507118378E0,1.341778320E1
1.255827625E1,8.815617828E0,6.308631134E0,7.478897552E0,1.316996025E1
1.256825025E1,7.560328217E0,5.433101807E0,7.459288330E0,1.192971669E1
1.257822325E1,6.585704956E0,3.540287933E0,5.905968475E0,9.528148406E0
1.258819725E1,5.599705353E0,1.363065491E0,3.670666809E0,6.832894145E0
1.259817125E1,4.381837921E0,-1.089733887E-1,2.474803619E0,5.033590341E0
1.260814525E1,3.222199402E0,-5.457650757E-1,1.709295502E0,3.688105152E0
1.261811925E1,2.323168945E0,-5.249583435E-1,1.177002411E0,2.656695294E0
1.262809325E1,1.757794647E0,-3.441343689E-1,8.032296753E-1,1.963020223E0
1.263806725E1,1.396446075E0,-2.270777893E-1,4.367916870E-1,1.480679892E0
1.264804125E1,1.103205872E0,-2.571652222E-1,8.262817383E-2,1.135792482E0
1.265801525E1,8.337661743E-1,-3.719764709E-1,-3.842509460E-1,9.905459696E-1
1.266798925E1,5.984555054E-1,-5.107379150E-1,-8.313711548E-1,1.144631035E0
1.267796325E1,4.276606750E-1,-5.792953491E-1,-1.333876190E0,1.515817418E0
1.268793725E1,1.715432739E-1,-6.423143005E-1,-1.794169006E0,1.913383699E0
1.269791125E1,-1.140628052E-1,-7.280859375E-1,-2.102677460E0,2.228087062E0
1.270788525E1,-4.297563171E-1,-9.114546204E-1,-2.348017273E0,2.555117440E0
1.271785925E1,-7.432044983E-1,-9.862989807E-1,-2.406994629E0,2.705321007E0
1.272783325E1,-9.813592529E-1,-9.386979675E-1,-2.539169769E0,2.879514364E0
1.273780725E1,-1.244362335E0,-7.511380005E-1,-2.746937714E0,3.107782605E0
1.274778125E1,-1.406624908E0,-4.555027771E-1,-2.752476196E0,3.124452212E0
1.275775425E1,-1.548978882E0,-3.290158081E-1,-2.583926697E0,3.030555090E0
1.276772825E1,-1.785786438E0,-4.724176025E-1,-2.293680267E0,2.945026445E0
1.277770225E1,-2.035317535E0,-8.448431396E-1,-1.933828583E0,2.931888536E0
1.278767625E1,-2.254012756E0,-1.445843353E0,-1.649719391E0,3.145252069E0
1.279765025E1,-2.263592834E0,-2.077978821E0,-1.521436157E0,3.428792277E0
1.280762425E1,-1.894161072E0,-2.421215057E0,-1.426982574E0,3.389160337E0
1.281759825E1,-1.036594391E0,-2.446961517E0,-1.144669647E0,2.893512951E0
1.282757225E1,1.188528442E-1,-2.383493500E0,-1.135987701E0,2.643035248E0
1.283754625E1,1.166224823E0,-3.457510071E0,-3.461701355E0,5.029695070E0
1.284752025E1,2.871628418E0,-5.745053101E0,-3.488495636E0,7.309000390E0
1.285749425E1,4.243076477E0,-8.317004700E0,8.363108826E-1,9.374202956E0
1.286746825E1,4.855453033E0,-1.233614685E1,1.079255676E0,1.330115544E1
1.287744225E1,5.977220306E0,-1.577749054E1,2.795736237E0,1.710182772E1
1.288741625E1,5.928571472E0,-2.133962402E1,2.685864716E0,2.231011839E1
1.289739025E1,5.288352814E0,-3.298869965E1,-1.641935577E0,3.345021573E1
1.290736425E1,2.860701141E0,-4.661785767E1,-2.427052917E0,4.676856690E1
1.291733825E1,-1.158441010E0,-5.384288315E1,-8.949888611E-1,5.386277988E1
1.292731225E1,-4.844825134E0,-5.326044434E1,-3.113974457E0,5.357092587E1
1.293728625E1,-6.216722260E0,-4.519117447E1,-3.301384735E0,4.573608014E1
1.294726025E1,-5.627996521E0,-3.562097580E1,-1.927990723E-1,3.606335305E1
1.295723325E1,-4.861889648E0,-2.690190720E1,1.765279083E0,2.739464897E1
1.296720725E1,-5.504653015E0,-2.015229309E1,3.190615082E0,2.113282154E1
1.297718125E1,-1.027762756E1,-1.504251892E1,1.256951157E1,2.213367626E1
1.298715525E1,-9.211993561E0,-1.219768478E1,1.554472458E1,2.180098167E1
1.299712925E1,-5.216951294E0,-1.276246033E1,6.467600555E0,1.522914414E1
1.300710325E1,-5.726342010E0,-1.531570084E1,1.230291595E0,1.639741755E1
1.301707725E1,-6.198160858E0,-1.651350998E1,-1.045126648E0,1.766933784E1
1.302705125E1,-6.076164551E0,-1.657368484E1,-2.365381165E0,1.781016095E1
1.303702525E1,-5.692811737E0,-1.620560028E1,-2.534828796E0,1.736245786E1
1.304699925E1,-6.219865723E0,-1.495465164E1,-2.194286957E0,1.634451684E1
1.305697325E1,-4.598287811E0,-1.302995407E1,-6.723867645E0,1.536666359E1
1.306694725E1,-2.792443085E0,-1.227956451E1,-8.125552826E0,1.498699609E1
1.307692125E1,-7.831713867E-1,-1.122261246E1,-2.289189606E0,1.148045194E1
1.308689525E1,6.099815369E-1,-1.013901581E1,1.151255951E0,1.022238276E1
1.309686925E1,9.135502625E-1,-7.813451843E0,1.408271484E0,7.991735254E0
1.310684325E1,1.127305756E0,-5.384752350E0,1.125509491E0,5.615438340E0
1.311681725E1,1.446442108E0,-3.553610229E0,7.235952759E-1,3.904347648E0
1.312679125E1,1.706601105E0,-2.128573608E0,3.420387268E-1,2.749600594E0
1.313676525E1,1.849553833E0,-9.839039612E-1,-2.185455322E-2,2.095088067E0
1.314673925E1,2.164947968E0,-2.636018372E-1,-2.007325745E-1,2.190155062E0
1.315671325E1,2.701132965E0,2.227368164E-1,6.286926270E-3,2.710308195E0
1.316668625E1,3.009192352E0,6.947053528E-1,2.640509033E-1,3.099609172E0
1.317666025E1,3.295846252E0,1.092727661E0,2.770738220E-1,3.483306786E0
1.318663425E1,3.801345062E0,1.049617310E0,1.847158813E-1,3.947915999E0
1.319660825E1,4.231700134E0,4.200265503E-1,-5.987548828E-4,4.252494408E0
1.320658225E1,4.489314423E0,-1.101559296E0,-4.382885742E-1,4.643218037E0
1.321655625E1,4.435576172E0,-2.961890717E0,-4.779560852E-1,5.354957947E0
1.322653025E1,4.309538269E0,-4.492158508E0,-4.370910645E-2,6.225232417E0
1.323650425E1,3.977528687E0,-6.036497040E0,1.663041687E-1,7.231022614E0
1.324647825E1,3.395688629E0,-7.732619934E0,6.810836792E-2,8.445635030E0
1.325645225E1,2.616259460E0,-9.306147766E0,-3.742218018E-2,9.666985064E0
1.326642625E1,1.735491028E0,-1.071112610E1,4.156855774E-1,1.085877276E1
1.327640025E1,9.517208862E-1,-1.195249466E1,1.031954041E0,1.203465124E1
1.328637425E1,3.213816833E-1,-1.337678284E1,1.303190002E0,1.344395438E1
1.329634825E1,-1.332229614E-1,-1.531150955E1,1.191372528E0,1.535836715E1
1.330632225E1,-5.797444153E-1,-1.798629730E1,6.984475708E-1,1.800918719E1
1.331629625E1,-1.130299530E0,-2.097692825E1,8.442443848E-2,2.100752778E1
1.332627025E1,-1.958826599E0,-2.297377579E1,-2.909948730E-1,2.305896905E1
1.333624425E1,-3.354224854E0,-2.234478378E1,-4.408332825E-1,2.259943629E1
1.334621825E1,-4.826413422E0,-1.858071121E1,-5.492079163E-1,1.920517443E1
1.335619225E1,-5.596561890E0,-1.466275864E1,-5.954617310E-1,1.570581327E1
1.336616625E1,-5.794749756E0,-1.171898026E1,-4.225712585E-1,1.308022131E1
1.337614025E1,-5.570665741E0,-9.375154266E0,-2.655477905E-1,1.090854481E1
1.338611425E1,-5.169949036E0,-7.480693817E0,-2.653981018E-1,9.097229752E0
1.339608825E1,-4.798721008E0,-5.947132874E0,-3.818559265E-1,7.651269612E0
1.340606225E1,-4.484823761E0,-4.793481903E0,-5.789959717E-1,6.589867165E0
1.341603525E1,-4.180805969E0,-4.082610168E0,-8.231382751E-1,5.901220294E0
1.342600988E1,-3.833528137E0,-3.823349304E0,-1.117126923E0,5.528282775E0
1.343598388E1,-3.447929993E0,-3.978426819E0,-1.436113586E0,5.456970169E0
1.344595788E1,-2.983296204E0,-4.625680847E0,-1.693727875E0,5.758966370E0
1.345593188E1,-2.338736572E0,-5.376070404E0,-1.631157990E0,6.085433274E0
1.346590587E1,-1.769769745E0,-6.129004669E0,-1.448388062E0,6.541759027E0
1.347587988E1,-1.344953156E0,-6.941515045E0,-1.289268951E0,7.187193092E0
1.348585388E1,-8.966354370E-1,-7.517217865E0,-1.188079376E0,7.663162020E0
1.349582788E1,-4.161346436E-1,-7.940687256E0,-1.203197937E0,8.042099689E0
1.350580188E1,3.293151855E-2,-8.242759094E0,-1.321302338E0,8.348053775E0
1.351577588E1,4.192781067E-1,-8.383167114E0,-1.515298920E0,8.529326809E0
1.352574987E1,7.607180786E-1,-8.393495636E0,-1.966460724E0,8.654272284E0
1.353572388E1,1.730551300E0,-8.377928009E0,-2.348915405E0,8.871408519E0
1.354569788E1,4.551435242E0,-8.114176483E0,-8.140072632E-1,9.339059406E0
1.355567188E1,6.935677185E0,-6.146967316E0,5.028792572E0,1.054407796E1
1.356564588E1,7.142247620E0,-4.583917694E0,4.622986450E0,9.664160916E0
1.357561987E1,7.870632935E0,-3.965254211E0,2.341131592E0,9.118717063E0
1.358559388E1,8.416847076E0,-3.763324127E0,2.918031921E0,9.670617017E0
1.359556788E1,8.147706757E0,-4.631818085E0,2.201621704E0,9.627356973E0
1.360554188E1,6.675218811E0,-6.602769470E0,1.771865387E0,9.554821704E0
1.361551588E1,3.372337189E0,-8.537945251E0,1.134790192E0,9.249698158E0
1.362548987E1,8.961863708E-1,-9.938283234E0,1.621577911E0,1.010950734E1
1.363546388E1,-4.995112610E-1,-1.074091415E1,1.936522980E0,1.092551462E1
1.364543788E1,-1.828747101E0,-1.145028900E1,4.881349182E-1,1.160567576E1
1.365541188E1,-2.894979858E0,-1.222088654E1,-1.360670471E0,1.263259278E1
1.366538588E1,-3.878135376E0,-1.358769424E1,-2.890040131E0,1.442281875E1
1.367535888E1,-5.023104401E0,-1.576865891E1,-3.591780853E0,1.693467068E1
1.368533288E1,-6.201603699E0,-1.750265305E1,-2.485581207E0,1.873448334E1
1.369530688E1,-7.391030273E0,-1.869806717E1,-5.776487732E-1,2.011414235E1
1.370528088E1,-9.181606750E0,-2.052591614E1,1.461410980E0,2.253332771E1
1.371525488E1,-1.130898285E1,-2.223581039E1,5.127287750E0,2.546789031E1
1.372522888E1,-1.223346039E1,-2.413236649E1,7.802524567E0,2.815862310E1
1.373520287E1,-1.195803314E1,-2.708901810E1,7.393574982E0,3.052006568E1
1.374517688E1,-1.098760117E1,-3.040387482E1,6.679859161E0,3.301126325E1
1.375515088E1,-9.656419373E0,-3.343746643E1,7.248975677E0,3.555078402E1
1.376512488E1,-7.579338684E0,-3.547113739E1,6.426585846E0,3.683678825E1
1.377509888E1,-5.160818024E0,-3.510963913E1,1.721719666E0,3.552865211E1
1.378507287E1,-3.476071472E0,-3.378848648E1,-6.466552734E-2,3.396688201E1
1.379504688E1,-2.107317810E0,-3.234414001E1,-3.640429688E-1,3.241476066E1
1.380502088E1,-6.349795532E-1,-2.990241760E1,-1.522633667E0,2.994789126E1
1.381499488E1,5.559439087E-1,-2.724619125E1,-1.570983124E0,2.729710606E1
1.382496888E1,1.401236115E0,-2.435270828E1,-1.749262390E0,2.445562885E1
1.383494287E1,1.690734100E0,-2.072455307E1,-2.038311310E0,2.089307050E1
1.384491688E1,1.501078491E0,-1.688758209E1,-2.937491455E0,1.720675802E1
1.385489088E1,1.119521942E0,-1.305255707E1,-4.251608734E0,1.377311701E1
1.386486488E1,7.667056274E-1,-9.240284729E0,-5.143603821E0,1.060317687E1
1.387483888E1,6.265969849E-1,-6.267915802E0,-5.085225220E0,8.095610404E0
1.388481288E1,1.008153534E0,-3.842808838E0,-5.250481567E0,6.584155983E0
1.389478687E1,1.718426514E0,-1.755998383E0,-4.502487030E0,5.129221136E0
1.390476088E1,2.028282166E0,-1.764830017E-1,-3.546425171E0,4.089279434E0
1.391473488E1,2.155068512E0,6.041436768E-1,-2.778671722E0,3.567958298E0
1.392470888E1,2.271226959E0,4.195774841E-1,-1.972148895E0,3.037085516E0
1.393468288E1,4.487218781E0,1.086740112E-1,3.536246338E0,5.714191158E0
1.394465687E1,8.823701019E0,7.089257812E-1,1.006641678E1,1.340496260E1
1.395463088E1,8.694519653E0,2.664608917E0,9.079818420E0,1.285059980E1
1.396460488E1,7.348967743E0,3.824247437E0,7.299420776E0,1.104145548E1
1.397457888E1,6.022725677E0,2.793490906E0,3.331771545E0,7.428157084E0
1.398455288E1,5.149142303E0,9.891430664E-1,-1.011895752E-1,5.244264467E0
1.399452687E1,4.853357391E0,-2.695893860E-1,2.035766602E-1,4.865100190E0
1.400449988E1,4.841082916E0,-1.134939880E0,8.999285889E-1,5.053122183E0
1.401447388E1,4.902904358E0,-2.107018433E0,2.053729248E-1,5.340428434E0
1.402444788E1,5.046156464E0,-2.635269928E0,-1.975891113E-1,5.696260537E0
1.403442188E1,5.195396118E0,-2.389930115E0,2.776725769E-1,5.725470185E0
1.404439588E1,4.972359924E0,-1.549128571E0,8.888516235E-1,5.283390933E0
1.405436987E1,4.299359436E0,-5.174739075E-1,1.313368835E0,4.525174969E0
1.406434388E1,3.488495636E0,5.530998230E-1,1.558708649E0,3.860711575E0
1.407431788E1,2.690954132E0,1.204096069E0,1.397344208E0,3.262461083E0
1.408429188E1,2.040706329E0,1.282982025E0,1.196162567E0,2.690971959E0
1.409426588E1,1.331481171E0,9.071136475E-1,1.228944397E0,2.026327123E0
1.410423987E1,6.376739502E-1,4.453239441E-1,1.246158600E0,1.468963151E0
1.411421388E1,8.711883545E-2,2.121089172E-1,1.138083344E0,1.160953738E0
1.412418788E1,-3.183879089E-1,9.924362183E-2,9.071136475E-1,9.664757247E-1
1.413416188E1,-6.489006042E-1,-8.681945801E-3,6.102809143E-1,8.908367778E-1
1.414413588E1,-8.370593262E-1,-1.091230774E-1,3.354524231E-1,9.083526241E-1
1.415410987E1,-9.446855164E-1,-1.893562317E-1,1.209484863E-1,9.710381268E-1
1.416408388E1,-1.051413574E0,-2.749781799E-1,-1.372645569E-1,1.095410910E0
1.417405788E1,-1.152453461E0,-3.647914124E-1,-4.700225830E-1,1.296974550E0
1.418403188E1,-1.139879608E0,-3.390449524E-1,-8.587641907E-1,1.466885454E0
1.419400588E1,-1.047821045E0,-3.153941345E-1,-1.230890350E0,1.646964923E0
1.420397987E1,-5.469625854E-1,-5.023553467E-1,-1.291963348E0,1.490200744E0
1.421395388E1,1.833686829E-1,-6.725514221E-1,-1.179696808E0,1.370267874E0
1.422392788E1,8.524772644E-1,-7.466473389E-1,-1.395547943E0,1.797707929E0
1.423390188E1,1.551523590E0,-1.083596649E0,-2.204316101E0,2.905239512E0
1.424387588E1,2.323917389E0,-2.267185364E0,-2.348765717E0,4.007171308E0
1.425384988E1,2.530936890E0,-3.649710388E0,1.044976959E0,4.562675126E0
1.426382387E1,1.985920258E0,-5.297483826E0,2.568209381E0,6.213124301E0
1.427379788E1,1.590292969E0,-7.910001068E0,1.907034302E0,8.290592768E0
1.428377188E1,1.863923950E0,-1.104418350E1,2.452350311E0,1.146569770E1
1.429374588E1,1.748513947E0,-1.543515244E1,2.951711884E0,1.581182579E1
1.430371988E1,1.811682587E0,-2.198373459E1,3.306324463E0,2.230467578E1
1.431369387E1,1.392554169E0,-3.457480133E1,2.950364685E0,3.472838531E1
1.432366788E1,-2.414029999E0,-5.142915253E1,-7.349716187E-2,5.148582982E1
1.433364188E1,-7.553143158E0,-6.151083755E1,-2.899769897E0,6.204064614E1
1.434361588E1,-1.009560608E1,-6.207381683E1,-4.112547913E0,6.302374988E1
1.435358988E1,-9.953252106E0,-5.154351471E1,-5.618416443E0,5.279552765E1
1.436356387E1,-7.707921295E0,-3.616943527E1,-3.686982880E0,3.716495582E1
1.437353788E1,-6.156547394E0,-2.410467407E1,-1.143023071E0,2.490471621E1
1.438351188E1,-6.702911224E0,-1.437580536E1,4.397854614E-1,1.586777268E1
1.439348488E1,-1.362212265E1,-5.228327637E0,1.046204407E1,1.795416390E1
1.440345888E1,-1.218481155E1,-4.444557495E0,1.780771866E1,2.203040099E1
1.441343288E1,-6.873256989E0,-5.984105988E0,8.077951813E0,1.217803316E1
1.442340629E1,-8.765921173E0,-1.193318481E1,8.710386658E-1,1.483243008E1
1.443338029E1,-7.126829681E0,-1.818643112E1,-2.571053467E0,1.970147949E1
1.444335429E1,-4.744384003E0,-2.021815613E1,-1.716031494E0,2.083813285E1
1.445332829E1,-2.750829620E0,-1.930879715E1,-3.583547974E-1,1.950705332E1
1.446330229E1,-1.236578522E0,-1.686857162E1,2.469863892E-2,1.691385364E1
1.447327629E1,-2.755769348E-1,-1.417387527E1,5.484594727E-1,1.418715936E1
1.448325029E1,2.643502808E-1,-1.187450684E1,7.521858215E-1,1.190124267E1
1.449322429E1,6.059399414E-1,-9.759704590E0,4.098477173E-1,9.787081896E0
1.450319829E1,9.924362183E-1,-7.840695190E0,7.484436035E-3,7.903257982E0
1.451317229E1,1.392105103E0,-6.221811676E0,-3.469784546E-1,6.385083492E0
1.452314629E1,1.749262390E0,-4.764442291E0,-8.074209595E-1,5.139237089E0
1.453312029E1,1.967358856E0,-3.697161713E0,-1.123563538E0,4.336115845E0
1.454309429E1,2.046394501E0,-2.931952972E0,-1.258283386E0,3.790429496E0
1.455306829E1,2.161804504E0,-2.022444305E0,-1.251098328E0,3.213864762E0
1.456304229E1,2.268083496E0,-1.244212646E0,-1.473984833E0,2.977398049E0
1.457301629E1,2.256856842E0,-7.658074951E-1,-1.364113312E0,2.746027868E0
1.458299029E1,2.309098206E0,-4.622387695E-1,-1.160985718E0,2.625545094E0
1.459296429E1,2.396965485E0,-2.945874023E-1,-1.148411865E0,2.674149413E0
1.460293829E1,2.451901245E0,-2.498304749E-1,-1.389410706E0,2.829257339E0
1.461291229E1,2.672841797E0,-5.322930908E-1,-1.416055298E0,3.071258995E0
1.462288629E1,3.195105743E0,-1.219813385E0,-7.682025146E-1,3.505250420E0
1.463286029E1,3.562142487E0,-2.349065094E0,-2.633024597E-1,4.275078256E0
1.464283429E1,3.545527039E0,-3.659140778E0,-1.481918335E-1,5.097257501E0
1.465280829E1,3.097359009E0,-4.811893616E0,-1.772314453E-1,5.725326539E0
1.466278229E1,2.353855133E0,-5.951324158E0,1.522334290E-1,6.401723849E0
1.467275629E1,1.576521606E0,-7.228917389E0,5.840853882E-1,7.421847663E0
1.468273029E1,8.652008057E-1,-8.717272339E0,9.412426758E-1,8.810524799E0
1.469270429E1,2.080673218E-1,-1.048584457E1,1.077160034E0,1.054307840E1
1.470267829E1,-4.667294312E-1,-1.260244308E1,9.391470337E-1,1.264600353E1
1.471265229E1,-1.167871399E0,-1.504970398E1,7.848179626E-1,1.511533833E1
1.472262629E1,-1.867965546E0,-1.783915329E1,7.282356262E-1,1.795146268E1
1.473260029E1,-2.609673157E0,-2.064402054E1,8.132588196E-1,2.082420149E1
1.474257429E1,-3.384012909E0,-2.296928513E1,8.740324402E-1,2.323367244E1
1.475254829E1,-4.232897644E0,-2.386876465E1,7.298822021E-1,2.425217673E1
1.476252229E1,-4.923711090E0,-2.126942001E1,6.589297485E-1,2.184182563E1
1.477249629E1,-4.978197784E0,-1.626637390E1,7.750881958E-1,1.702874437E1
1.478247029E1,-4.859943695E0,-1.259914993E1,8.643026733E-1,1.353161671E1
1.479244429E1,-4.678670654E0,-9.813742218E0,7.969427490E-1,1.090112899E1
1.480241829E1,-4.443809052E0,-7.709268494E0,5.203179932E-1,8.913528505E0
1.481239229E1,-4.210144958E0,-6.215225372E0,1.466949463E-1,7.508386405E0
1.482236629E1,-4.069736938E0,-5.214705963E0,-3.124003601E-1,6.622198352E0
1.483234029E1,-3.999233551E0,-4.589755554E0,-7.952961731E-1,6.139399079E0
1.484231429E1,-3.982019348E0,-4.340673523E0,-1.125659180E0,5.997085401E0
1.485228829E1,-4.192930756E0,-4.476291504E0,-1.288370819E0,6.267196607E0
1.486226229E1,-4.463717651E0,-5.065166931E0,-1.343755646E0,6.883775893E0
1.487223629E1,-4.430486755E0,-5.910159760E0,-1.359323273E0,7.510456779E0
1.488221029E1,-3.724405060E0,-6.465654602E0,-1.394051056E0,7.590735197E0
1.489218429E1,-2.921624451E0,-6.583160248E0,-1.394051056E0,7.336025261E0
1.490215829E1,-2.278861084E0,-6.510860596E0,-1.405726776E0,7.039927649E0
1.491213229E1,-1.713486786E0,-6.283782806E0,-1.482367401E0,6.679773681E0
1.492210629E1,-1.200054474E0,-5.889053650E0,-1.641037445E0,6.230095306E0
1.493208029E1,-6.906637573E-1,-5.373825073E0,-1.899400177E0,5.741318087E0
1.494205429E1,-1.728904724E-1,-4.738246765E0,-2.231409760E0,5.240235017E0
1.495202829E1,4.635859680E-1,-4.201762390E0,-2.690505066E0,5.010841910E0
1.496200229E1,1.376687164E0,-3.965703278E0,-2.698139191E0,4.990192895E0
1.497197629E1,2.809657288E0,-4.209097137E0,-7.454498291E-2,5.061247844E0
1.498195029E1,4.294419708E0,-4.578528900E0,7.315287781E-1,6.319818184E0
1.499192329E1,5.368436279E0,-5.341941376E0,-5.987548828E-4,7.573403865E0
1.500189729E1,6.416257324E0,-7.676935730E0,-6.764433289E-1,1.002802452E1
1.501187129E1,6.349346466E0,-8.634195099E0,9.663903809E-1,1.076092170E1
1.502184529E1,4.182751923E0,-9.334738312E0,-2.341131592E-1,1.023169399E1
1.503181929E1,7.659571838E-1,-9.818681946E0,2.293231201E-1,9.851182399E0
1.504179329E1,-2.434986420E0,-9.358538818E0,1.408870239E0,9.772222011E0
1.505176729E1,-4.144431610E0,-9.393565979E0,2.667153625E0,1.060797359E1
1.506174129E1,-4.153712311E0,-9.727820892E0,3.586092682E0,1.116888025E1
1.507171529E1,-3.476520538E0,-9.856104126E0,2.496358795E0,1.074526830E1
1.508168929E1,-2.902613983E0,-1.056098831E1,1.366658020E-1,1.095346153E1
1.509166329E1,-2.796784058E0,-1.188977509E1,-1.695973206E0,1.233146698E1
1.510163729E1,-3.310515747E0,-1.342139008E1,-2.477498016E0,1.404390339E1
1.511161129E1,-4.237687683E0,-1.500764145E1,-2.508633270E0,1.579495298E1
1.512158529E1,-5.573958893E0,-1.708472214E1,-2.520907745E0,1.814694807E1
1.513155929E1,-7.082072754E0,-1.965817062E1,-2.298470306E0,2.102099885E1
1.514153329E1,-8.760532379E0,-2.286270676E1,-1.628164215E0,2.453775064E1
1.515150729E1,-1.062026505E1,-2.732103561E1,-1.032103729E0,2.933077317E1
1.516148129E1,-1.269779480E1,-3.335618546E1,5.432203674E-1,3.569543653E1
1.517145529E1,-1.549233353E1,-4.051235413E1,7.307503967E0,4.398480248E1
1.518142929E1,-1.649375107E1,-4.442207382E1,1.852487732E1,5.087765272E1
1.519140329E1,-1.245964005E1,-3.990925827E1,1.519115982E1,4.448328745E1
1.520137729E1,-9.201215973E0,-3.607977173E1,5.007836151E0,3.756981137E1
1.521135129E1,-5.935157776E0,-3.408052917E1,7.659571838E-1,3.460195453E1
1.522132529E1,-2.654280396E0,-3.082105728E1,-1.728006592E0,3.098336301E1
1.523129929E1,-1.579216003E-1,-2.686433533E1,-2.829715576E0,2.701341781E1
1.524127329E1,1.873054962E0,-2.305161392E1,-3.041824493E0,2.332676436E1
1.525124729E1,3.099155273E0,-1.922886337E1,-3.908971252E0,1.986539721E1
1.526122129E1,3.918701019E0,-1.586326218E1,-4.880301361E0,1.705334706E1
1.527119529E1,4.489015045E0,-1.283401154E1,-5.530249786E0,1.467810515E1
1.528116929E1,4.098776550E0,-1.010638367E1,-5.402714996E0,1.217079658E1
1.529114329E1,3.054697723E0,-7.566016388E0,-5.427413635E0,9.799622489E0
1.530111729E1,2.933599548E0,-4.745581512E0,-5.677393799E0,7.959858702E0
1.531109129E1,3.222798157E0,-1.913171539E0,-6.120771790E0,7.177081621E0
1.532106529E1,3.042273560E0,-2.486329651E-1,-5.656587067E0,6.427614177E0
1.533103929E1,2.908302155E0,4.700225830E-2,-3.540437622E0,4.582044215E0
1.534101329E1,4.569098511E0,1.746867371E-1,1.504371643E-1,4.574910709E0
1.535098729E1,7.615413666E0,1.319356384E0,3.776796112E0,8.602291290E0
1.536096129E1,9.939181366E0,2.926863556E0,7.034621429E0,1.252356799E1
1.537093529E1,1.036190231E1,5.348976746E0,8.327482910E0,1.432925481E1
1.538090929E1,9.817334747E0,6.773564301E0,6.809489594E0,1.373427768E1
1.539088329E1,9.184600525E0,6.283932495E0,5.369783478E0,1.235634529E1
1.540085729E1,8.273744659E0,4.571942596E0,4.210893402E0,1.034838794E1
1.541083129E1,7.149432678E0,2.180814972E0,3.518732758E0,8.261466079E0
1.542080550E1,6.216572571E0,6.448590088E-1,3.263663177E0,7.050752797E0
1.543077950E1,5.109774170E0,-2.369572449E-1,2.327210541E0,5.619773101E0
1.544075350E1,4.183350677E0,-8.123606873E-1,1.144969025E0,4.412630377E0
1.545072750E1,3.123853912E0,-1.155297546E0,4.225712585E-1,3.357341531E0
1.546070150E1,2.050885162E0,-1.262624359E0,3.953279114E-1,2.440621720E0
1.547067550E1,1.266216888E0,-1.134790192E0,6.682104492E-1,1.826898791E0
1.548064950E1,8.024812317E-1,-8.198451233E-1,5.358856201E-1,1.266213075E0
1.549062350E1,2.565664673E-1,-6.463558960E-1,7.753875732E-2,6.997246282E-1
1.550059750E1,-2.209405518E-1,-5.179229736E-1,-3.188369751E-1,6.470826460E-1
1.551057150E1,-5.822891235E-1,-3.291654968E-1,-5.083428955E-1,8.401327556E-1
1.552054550E1,-7.731422424E-1,-1.541793823E-1,-6.718029785E-1,1.035779634E0
1.553051950E1,-1.027762756E0,-2.200424194E-2,-7.957452393E-1,1.299996521E0
1.554049350E1,-1.305435333E0,-3.263214111E-2,-8.152047729E-1,1.539410630E0
1.555046750E1,-1.600322113E0,-1.983375549E-1,-8.014334106E-1,1.800739893E0
1.556044150E1,-1.844464417E0,-4.281097412E-1,-7.316784668E-1,2.029945889E0
1.557041550E1,-2.025587769E0,-5.921685791E-1,-6.538403320E-1,2.209338501E0
1.558038950E1,-2.077829132E0,-7.496411133E-1,-5.846841431E-1,2.284992614E0
1.559036350E1,-2.014959869E0,-9.810598755E-1,-5.300477600E-1,2.302931259E0
1.560033750E1,-1.744172974E0,-1.200054474E0,-3.930825806E-1,2.153319302E0
1.561031150E1,-1.130748596E0,-1.183139648E0,-3.113525391E-1,1.665938840E0
1.562028550E1,-5.647755432E-1,-1.095871124E0,-4.340972900E-1,1.307036875E0
1.563025950E1,-2.070195007E-1,-1.225351868E0,-6.768923950E-1,1.415106917E0
1.564023350E1,7.843688965E-2,-1.581910400E0,-1.209634552E0,1.992939690E0
1.565020750E1,5.092410278E-1,-2.547103271E0,-2.940934296E0,3.923793577E0
1.566018150E1,1.596130829E0,-3.487896881E0,-2.025587769E0,4.337748735E0
1.567015550E1,2.082020416E0,-3.457061005E0,2.264341278E0,4.627452996E0
1.568012950E1,1.502874756E0,-5.155728607E0,3.144211578E0,6.223040772E0
1.569010350E1,1.348246307E0,-8.220156097E0,1.956581268E0,8.556690051E0
1.570007750E1,1.784738617E0,-1.277398636E1,2.525847473E0,1.314305615E1
1.571005150E1,1.986519012E0,-2.071706863E1,3.462599487E0,2.109817020E1
1.572002550E1,1.426383820E0,-3.586242371E1,1.826202393E0,3.593720941E1
1.572999950E1,-1.763033752E0,-5.250391754E1,9.798623657E-1,5.254264721E1
1.573997350E1,-5.847290497E0,-6.293303009E1,-5.842350769E-1,6.320679088E1
1.574994750E1,-8.796158295E0,-6.655429962E1,-5.633984070E0,6.736905057E1
1.575992150E1,-8.446186066E0,-5.641573288E1,-5.625152435E0,5.732115940E1
1.576989550E1,-6.964267731E0,-3.857613052E1,-2.743943939E0,3.929564988E1
1.577986950E1,-5.496569824E0,-2.499277725E1,-2.403402100E0,2.570267566E1
1.578984350E1,-4.735402679E0,-1.625799133E1,-8.812174988E-1,1.695649920E1
1.579981750E1,-5.701643372E0,-1.149474655E1,1.380130005E0,1.290514216E1
1.580979150E1,-1.443822556E1,-7.012617188E0,1.526809982E1,2.215296886E1
1.581976550E1,-1.359398117E1,-5.178331604E0,2.229463806E1,2.662071240E1
1.582973950E1,-6.909032593E0,-7.002138977E0,1.112262039E1,1.484848026E1
1.583971350E1,-8.142018585E0,-1.095856155E1,2.469265137E0,1.387370925E1
1.584968750E1,-8.840466156E0,-1.112411728E1,-4.534071350E-1,1.421637806E1
1.585966150E1,-9.723030853E0,-6.706204376E0,1.429527283E-1,1.181232160E1
1.586963550E1,-9.195827179E0,-7.618856506E0,-3.937561798E0,1.257436300E1
1.587960950E1,-8.568182373E0,-7.312294006E0,-1.170790329E1,1.624679637E1
1.588958350E1,-6.199358368E0,-5.007237396E0,-1.988943970E1,2.142648553E1
1.589955750E1,-1.181343384E0,-7.756121063E0,-8.162825317E0,1.132186837E1
1.590953150E1,7.908055115E-1,-9.323960724E0,-5.480104065E-1,9.373469600E0
1.591950550E1,1.772314453E0,-8.639733582E0,1.732048187E0,8.988108021E0
1.592947950E1,2.102078705E0,-7.756719818E0,3.121458893E0,8.621423481E0
1.593945350E1,2.187700653E0,-5.898633728E0,2.408491516E0,6.736523242E0
1.594942750E1,2.621049500E0,-3.899391174E0,2.318528595E0,5.239344124E0
1.595940150E1,3.445684662E0,-2.642754364E0,2.995420990E0,5.275361630E0
1.596937550E1,3.582350464E0,-2.035167847E0,2.834206238E0,5.000786739E0
1.597934950E1,3.582051086E0,-1.629511414E0,2.345622253E0,4.581303438E0
1.598932350E1,3.958667908E0,-1.374142456E0,1.923500061E0,4.610766919E0
1.599929750E1,4.374652863E0,-1.324894867E0,1.784439240E0,4.906848018E0
1.600927150E1,4.680017853E0,-1.302441559E0,1.472338257E0,5.076091120E0
1.601924550E1,4.997807007E0,-1.669328613E0,1.002315674E0,5.363708568E0
1.602921950E1,4.818779297E0,-2.767744446E0,1.145717468E0,5.673950277E0
1.603919350E1,4.020189972E0,-4.151317291E0,9.669891357E-1,5.859217580E0
1.604916750E1,2.759212189E0,-5.030139771E0,1.730401611E-1,5.739817150E0
1.605914150E1,1.644480286E0,-5.946085052E0,-1.992356873E-1,6.172514700E0
1.606911550E1,9.422904968E-1,-7.168742523E0,1.701960754E-1,7.232409519E0
1.607908950E1,2.433938599E-1,-8.656947784E0,5.236111450E-1,8.676183155E0
1.608906350E1,-5.101391602E-1,-1.065903442E1,7.258406067E-1,1.069589180E1
1.609903750E1,-1.331930237E0,-1.313877777E1,8.357121277E-1,1.323253318E1
1.610901150E1,-2.380799103E0,-1.595651825E1,7.523355103E-1,1.615068691E1
1.611898550E1,-3.663631439E0,-1.875464951E1,5.297483826E-1,1.911647736E1
1.612895950E1,-4.916526031E0,-2.075643677E1,3.064128113E-1,2.133297411E1
1.613893350E1,-6.014043732E0,-2.134920410E1,6.915618896E-2,2.218021687E1
1.614890750E1,-6.688391418E0,-2.008448410E1,-3.568579102E-1,2.117187826E1
1.615888150E1,-6.721173248E0,-1.744262787E1,-1.013093262E0,1.872019751E1
1.616885550E1,-6.339616699E0,-1.480765732E1,-1.294358368E0,1.615960454E1
1.617882950E1,-5.979615326E0,-1.283071838E1,-1.418150940E0,1.422653457E1
1.618880350E1,-5.658682709E0,-1.135823044E1,-1.632804565E0,1.279437921E1
1.619877750E1,-5.397625580E0,-1.022613464E1,-1.871258698E0,1.171365873E1
1.620875150E1,-5.222190399E0,-9.416917419E0,-1.883832550E0,1.093153380E1
1.621872550E1,-5.136568451E0,-8.805888062E0,-1.573827209E0,1.031527664E1
1.622869950E1,-5.163961487E0,-8.307723999E0,-1.133592682E0,9.847324949E0
1.623867350E1,-5.169499969E0,-7.919431458E0,-6.924600220E-1,9.482648650E0
1.624864750E1,-5.237159271E0,-7.658823395E0,-3.011737061E-1,9.283109319E0
1.625862150E1,-5.176385651E0,-7.191195831E0,1.197509766E-3,8.860489113E0
1.626859450E1,-4.927602997E0,-6.720574493E0,3.528163147E-1,8.340975493E0
1.627856850E1,-4.466711426E0,-6.424490204E0,8.503816223E-1,7.870751822E0
1.628854250E1,-3.628155212E0,-6.269712067E0,1.770667877E0,7.457081492E0
1.629851650E1,-1.950144653E0,-6.218368835E0,3.843108215E0,7.565755474E0
1.630849050E1,-1.686991882E-1,-6.038293304E0,5.365741882E0,8.079643024E0
1.631846450E1,2.796185303E-1,-5.824986877E0,4.599485321E0,7.427242009E0
1.632843850E1,4.520599365E-2,-5.816454620E0,3.430715790E0,6.752999242E0
1.633841250E1,7.738906860E-2,-5.889652405E0,2.422711945E0,6.368950281E0
1.634838650E1,2.068698120E-1,-5.940546570E0,1.394949188E0,6.105634439E0
1.635836050E1,4.927752686E-1,-5.840255127E0,1.574725342E-1,5.863122463E0
1.636833450E1,1.068927155E0,-5.500012665E0,-1.116378479E0,5.713059205E0
1.637830850E1,1.785037994E0,-5.048850861E0,-1.759590912E0,5.636791271E0
1.638828250E1,3.022664337E0,-4.578079834E0,-1.233435059E0,5.622870860E0
1.639825650E1,4.189487915E0,-4.003125458E0,-4.499642944E-1,5.811995379E0
1.640823050E1,4.428091736E0,-3.359164581E0,-1.932481384E-1,5.561414204E0
1.641820450E1,4.398153992E0,-2.976709900E0,-8.406518555E-1,5.376918811E0
1.642817854E1,4.688400421E0,-3.303779755E0,-1.413809967E0,5.907192040E0
1.643815254E1,5.107229462E0,-4.743485870E0,-8.411009216E-1,7.020819164E0
1.644812654E1,4.703369293E0,-7.132966919E0,-9.505233765E-2,8.544585111E0
1.645810054E1,3.175646210E0,-9.319320374E0,-4.903802490E-1,9.857734723E0
1.646807454E1,1.789528656E0,-1.109627518E1,-1.008303223E0,1.128478671E1
1.647804854E1,9.210346985E-1,-1.291738815E1,-1.405128021E0,1.302618925E1
