"Time (s)","Acceleration x (m/s^2)","Acceleration y (m/s^2)","Acceleration z (m/s^2)","Absolute acceleration (m/s^2)"
9.632916655E-3,-2.124082947E-1,7.407945099E0,6.503825226E0,9.860147587E0
1.960791671E-2,-1.327738953E-1,7.364385681E0,6.446793823E0,9.788409266E0
2.958191675E-2,-1.944456482E-1,7.382198639E0,6.583459625E0,9.893260660E0
3.955591656E-2,-1.417552185E-1,7.386689301E0,6.763086090E0,1.001611735E1
4.952991661E-2,-3.083587646E-2,7.345824280E0,6.863826599E0,1.005356657E1
5.950391665E-2,3.487747192E-2,7.280859375E0,6.913074188E0,1.004005600E1
6.947791670E-2,8.322692871E-2,7.302264862E0,6.816375275E0,9.989643173E0
7.945191674E-2,1.121168518E-1,7.241042175E0,6.704707489E0,9.869060973E0
8.942691656E-2,1.377136230E-1,7.288044434E0,6.504124603E0,9.769247339E0
9.940091660E-2,8.008346558E-2,7.326364746E0,6.376140747E0,9.712734145E0
1.093749166E-1,-7.813751221E-2,7.277266846E0,6.293213196E0,9.621291522E0
1.193489167E-1,-1.707948303E-1,7.245083771E0,6.241271210E0,9.564197616E0
1.293229167E-1,-2.263293457E-1,7.226821747E0,6.309828644E0,9.596463674E0
1.392969165E-1,-2.014810181E-1,7.236252136E0,6.211782532E0,9.538877387E0
1.492719166E-1,-1.811233521E-1,7.261998596E0,6.055806885E0,9.457390037E0
1.592459166E-1,-2.291734314E-1,7.300169220E0,6.138285370E0,9.540625681E0
1.692199167E-1,-1.407073975E-1,7.301516418E0,6.058650970E0,9.488898364E0
1.791939167E-1,-2.799179077E-2,7.269183655E0,5.912854156E0,9.370360656E0
1.891679165E-1,3.532653809E-2,7.311844940E0,6.002667389E0,9.460250535E0
1.991419166E-1,4.041595459E-3,7.328161011E0,6.162085876E0,9.574615527E0
2.091169166E-1,-7.484436035E-4,7.320826263E0,6.129753113E0,9.548212972E0
2.190909167E-1,1.541793823E-2,7.335046692E0,6.154002686E0,9.574700869E0
2.290649167E-1,-4.849914551E-2,7.298223267E0,6.148015137E0,9.542772403E0
2.390389165E-1,-1.297801208E-1,7.361242218E0,6.173312531E0,9.608044415E0
2.490129166E-1,-2.737806702E-1,7.390581207E0,6.377787323E0,9.765849557E0
2.589869166E-1,-3.411405945E-1,7.445966034E0,6.517297211E0,9.901209523E0
2.689609167E-1,-2.498304749E-1,7.509733429E0,6.675218811E0,1.005072423E1
2.789359167E-1,-2.133064270E-1,7.491471405E0,6.759942627E0,1.009279286E1
2.889099168E-1,-2.969824219E-1,7.462431793E0,6.829847260E0,1.012041997E1
2.988839166E-1,-4.323010254E-1,7.550299072E0,6.635401611E0,1.006093707E1
3.088579166E-1,-7.203021240E-1,7.622149658E0,6.844516754E0,1.026953797E1
3.188319167E-1,-9.592053223E-1,7.673193512E0,7.065756683E0,1.047486950E1
3.288059167E-1,-1.051862640E0,7.791297913E0,6.740483093E0,1.035590897E1
3.387809168E-1,-1.007105713E0,7.905809784E0,6.499184875E0,1.028374904E1
3.487549166E-1,-1.169967041E0,7.991731110E0,6.319857788E0,1.025559318E1
3.587289166E-1,-1.212778015E0,8.011340332E0,6.317313080E0,1.027428095E1
3.687029167E-1,-1.046174469E0,8.059240723E0,6.443949738E0,1.037161175E1
3.786769167E-1,-5.381309509E-1,7.611222382E0,6.396498413E0,9.956680321E0
3.886509167E-1,-2.656974792E-1,7.429649963E0,6.022575989E0,9.567743478E0
3.986249166E-1,-4.013154602E-1,7.557933197E0,6.370602264E0,9.892824749E0
4.085999166E-1,-8.337661743E-2,7.921078033E0,7.140601044E0,1.066483062E1
4.185739167E-1,2.046244812E-1,8.622818756E0,7.315886536E0,1.131004289E1
4.285479167E-1,5.613327026E-2,9.096733246E0,7.200626221E0,1.160184143E1
4.385219167E-1,-8.247848511E-2,8.879983978E0,6.847660217E0,1.121389177E1
4.484959166E-1,-1.499880981E-1,8.596623230E0,6.510112152E0,1.078452538E1
4.584699166E-1,2.968327332E-1,8.625962219E0,6.655310211E0,1.089901316E1
4.684449167E-1,1.035995636E0,9.070238342E0,6.753655701E0,1.135580802E1
4.784189167E-1,1.430724792E0,9.474846954E0,6.460265808E0,1.155658827E1
4.883929167E-1,1.829495544E0,9.645342407E0,5.927972717E0,1.146824069E1
4.983669166E-1,2.164798279E0,9.565109253E0,5.215005341E0,1.110738256E1
5.083409166E-1,1.981279907E0,9.055568848E0,4.724625092E0,1.040436829E1
5.183149166E-1,1.480122070E0,8.101602631E0,4.620441742E0,9.443262594E0
5.282889167E-1,1.002914429E0,7.447911987E0,4.655169525E0,8.840126336E0
5.382639167E-1,4.426295471E-1,7.006330261E0,4.773573303E0,8.489498615E0
5.482379165E-1,-3.056643677E-1,6.434369659E0,4.691543884E0,7.969010455E0
5.582119166E-1,-1.405427399E0,5.711522827E0,5.144501953E0,7.814257452E0
5.681859166E-1,-1.918560333E0,5.323679352E0,5.798791351E0,8.102371056E0
5.781599167E-1,-1.313368835E0,5.582640839E0,6.501130829E0,8.669228252E0
5.881339167E-1,-5.370831299E-1,6.073021088E0,6.772516479E0,9.112465247E0
5.981089165E-1,-1.441502380E-1,6.455026703E0,6.438560944E0,9.118290193E0
6.080829166E-1,4.902305603E-1,6.276148682E0,6.117927704E0,8.778348801E0
6.180569166E-1,2.334545288E0,6.340814209E0,6.345604248E0,9.269450890E0
6.280309167E-1,2.195933533E0,6.477779388E0,6.702013092E0,9.576049779E0
6.380049167E-1,2.679577789E0,6.979236603E0,8.341254272E0,1.120117867E1
6.479789168E-1,3.356320496E0,7.829917603E0,8.658145294E0,1.214643886E1
6.579539166E-1,3.815116425E0,8.754245453E0,8.174351349E0,1.257028030E1
6.679279166E-1,3.752995605E0,9.015751648E0,7.959697723E0,1.259863253E1
6.779019167E-1,3.482957153E0,8.577762451E0,7.447163544E0,1.188146641E1
6.878759167E-1,2.808459778E0,7.625891876E0,5.554349670E0,9.843397457E0
6.978499168E-1,1.361119537E0,6.537505188E0,3.361709290E0,7.476142710E0
7.078239166E-1,2.868035889E-1,6.074368286E0,2.160756683E0,6.453609519E0
7.177979166E-1,1.187031555E-1,6.300997009E0,2.325863342E0,6.717610739E0
7.277729167E-1,4.381388855E-1,7.147636414E0,3.730242920E0,8.074365871E0
7.377469167E-1,1.047072601E0,7.748786316E0,5.398823090E0,9.501965121E0
7.477209168E-1,1.731449432E0,8.388705597E0,7.106472015E0,1.112970095E1
7.576949166E-1,2.224224701E0,8.485254822E0,8.525521088E0,1.223238467E1
7.676689166E-1,2.454146576E0,7.895331573E0,1.069870193E1,1.352114341E1
7.776429167E-1,2.625839539E0,6.982978821E0,1.284059784E1,1.485052118E1
7.876169167E-1,2.829565887E0,5.734425201E0,1.248373993E1,1.402618402E1
7.975919168E-1,3.450624390E0,5.374872894E0,1.147708328E1,1.313466817E1
8.075659166E-1,3.543431396E0,4.587809601E0,1.067220703E1,1.214495393E1
8.175399166E-1,3.592080231E0,4.051474915E0,1.058778259E1,1.189195651E1
8.275139167E-1,2.733914795E0,5.228477325E0,1.066352509E1,1.218696158E1
8.374879167E-1,6.518943787E-1,6.070925446E0,8.824150085E0,1.073064429E1
8.474619167E-1,-1.454974365E-1,6.559659119E0,7.514673157E0,9.976001700E0
8.574369166E-1,-7.556286621E-1,7.276368713E0,7.467970276E0,1.045404689E1
8.674109166E-1,-9.849517822E-1,7.840395813E0,1.023346939E1,1.292926264E1
8.773849166E-1,-7.896080017E-1,7.024143219E0,1.331466202E1,1.507455782E1
8.873589167E-1,-2.345622253E-1,6.112389221E0,1.309102707E1,1.444961284E1
8.973329167E-1,8.652008057E-2,5.738616486E0,1.177421539E1,1.309852484E1
9.073069165E-1,-8.622070312E-2,5.626499634E0,1.014545242E1,1.160151443E1
9.172809166E-1,-4.510121155E-1,5.403463440E0,8.896150360E0,1.041836457E1
9.272559166E-1,-1.002165985E0,4.907993774E0,8.553812256E0,9.912640600E0
9.372299167E-1,-2.032922516E0,4.123774567E0,9.171577606E0,1.025944084E1
9.472039167E-1,-2.973716125E0,4.380191345E0,1.048674271E1,1.174737572E1
9.571779165E-1,-3.490591278E0,5.094954987E0,1.113953522E1,1.273703414E1
9.671515417E-1,-4.177213440E0,5.537883911E0,1.057131683E1,1.264397129E1
9.771255415E-1,-4.966222687E0,5.864205322E0,9.132359161E0,1.193533643E1
9.871005416E-1,-5.856271820E0,6.198011169E0,7.430697784E0,1.131046116E1
9.970745416E-1,-6.789580994E0,6.481222229E0,5.720204773E0,1.099206051E1
1.007048542E0,-6.504723358E0,6.419550476E0,5.446424103E0,1.063887164E1
1.017022542E0,-4.905898132E0,5.933660889E0,6.669680328E0,1.018630471E1
1.026996542E0,-3.394790497E0,5.607788544E0,8.678652649E0,1.087616231E1
1.036970542E0,-2.481539612E0,5.654641113E0,1.009500732E1,1.183394177E1
1.046944542E0,-2.114652557E0,5.863905945E0,1.075034454E1,1.242686832E1
1.056919542E0,-2.070943451E0,6.063441010E0,1.087728058E1,1.262415765E1
1.066893542E0,-2.143991547E0,6.141728210E0,1.067325485E1,1.249943576E1
1.076867542E0,-2.317031708E0,6.146069183E0,1.026954437E1,1.219042017E1
1.086841542E0,-2.679278412E0,5.987997894E0,9.878108368E0,1.185797945E1
1.096815542E0,-2.977308655E0,5.707481232E0,9.402696991E0,1.139519283E1
1.106789542E0,-3.287164307E0,5.489684143E0,9.042246552E0,1.107719747E1
1.116763542E0,-3.503015442E0,5.286706238E0,8.845106506E0,1.088376264E1
1.126738542E0,-3.686234436E0,4.926854553E0,8.533304901E0,1.052043310E1
1.136712542E0,-3.892655182E0,4.520449677E0,8.155191193E0,1.010417602E1
1.146686542E0,-4.217928772E0,4.211192780E0,7.868986359E0,9.871474766E0
1.156660542E0,-4.425097961E0,3.996090088E0,7.807464294E0,9.823783725E0
1.166634542E0,-4.624932404E0,3.773502960E0,7.917934570E0,9.915796095E0
1.176608542E0,-4.554279327E0,3.668571167E0,8.120912476E0,1.000745193E1
1.186583542E0,-4.204157410E0,3.739523621E0,8.387208710E0,1.009971516E1
1.196557542E0,-3.719165955E0,3.908073120E0,8.342751160E0,9.935125959E0
1.206531542E0,-3.341651001E0,3.993545380E0,7.865244141E0,9.432767436E0
1.216505542E0,-3.047662354E0,4.079017639E0,7.329508209E0,8.924590820E0
1.226479542E0,-2.694995728E0,4.254752197E0,6.969656525E0,8.598955187E0
1.236453542E0,-2.387984161E0,4.413721619E0,6.740782471E0,8.403663201E0
1.246427542E0,-2.113604736E0,4.560266876E0,6.631809082E0,8.321313037E0
1.256402542E0,-1.912123718E0,4.675527191E0,6.642137604E0,8.344744668E0
1.266376542E0,-1.721120911E0,4.810396729E0,6.670578461E0,8.402308663E0
1.276350542E0,-1.538201294E0,4.914879456E0,6.804250488E0,8.533459321E0
1.286324542E0,-1.378633118E0,4.906197510E0,7.016808472E0,8.672197208E0
1.296298542E0,-1.276545410E0,4.738695831E0,7.212002563E0,8.723404573E0
1.306272542E0,-1.099313965E0,4.528083801E0,7.908204803E0,9.178874513E0
1.316246542E0,-1.022224274E0,4.361480255E0,9.086404724E0,1.013065661E1
1.326221542E0,-9.063652039E-1,4.281696167E0,8.009244690E0,9.127015966E0
1.336195542E0,-6.400689697E-1,4.151616669E0,7.976612549E0,9.015096062E0
1.346169542E0,-8.574169922E-1,3.990850983E0,8.450077972E0,9.384341916E0
1.356143542E0,-1.066083069E0,3.834725647E0,8.173004150E0,9.090635332E0
1.366117542E0,-1.288370819E0,3.744463348E0,8.311615906E0,9.206729284E0
1.376091542E0,-1.544488220E0,3.612587585E0,8.221652985E0,9.112179252E0
1.386065542E0,-1.657652893E0,3.458108826E0,7.689060516E0,8.592321071E0
1.396040542E0,-1.707948303E0,3.349135437E0,7.339537354E0,8.246369149E0
1.406014542E0,-1.914518738E0,3.405119019E0,7.327711945E0,8.303949655E0
1.415988542E0,-2.246827698E0,3.464994507E0,7.461533661E0,8.528124425E0
1.425962542E0,-2.499801636E0,3.340303802E0,7.338938599E0,8.441958154E0
1.435936542E0,-2.645598450E0,3.178190918E0,7.119345245E0,8.233174685E0
1.445910542E0,-2.733316040E0,3.100951538E0,6.987170105E0,8.118341154E0
1.455884542E0,-2.827769623E0,3.131937103E0,6.979236603E0,8.155676221E0
1.465859542E0,-2.808010712E0,3.273093567E0,6.899153137E0,8.136115760E0
1.475833542E0,-2.677781525E0,3.464695129E0,6.755302277E0,8.050387263E0
1.485807542E0,-2.603386230E0,3.792363739E0,6.475084991E0,7.942692758E0
1.495781542E0,-2.492167511E0,4.104165344E0,6.019881592E0,7.700262752E0
1.505755542E0,-2.414479065E0,4.454287262E0,5.875881042E0,7.758631464E0
1.515729542E0,-2.346819763E0,4.860991516E0,6.168971558E0,8.197134353E0
1.525704542E0,-2.271526337E0,5.203030243E0,6.375242615E0,8.536689874E0
1.535678542E0,-2.291584625E0,5.375172272E0,6.337670746E0,8.620319456E0
1.545652542E0,-2.404150543E0,5.423970795E0,6.326743469E0,8.673354711E0
1.555626542E0,-2.334395599E0,5.472020874E0,6.589896240E0,8.878014852E0
1.565600542E0,-2.177521820E0,5.402265930E0,6.934928741E0,9.056451574E0
1.575574542E0,-2.022593994E0,5.303171997E0,7.156168671E0,9.133743468E0
1.585548542E0,-1.802102509E0,5.261857910E0,7.157366180E0,9.064359479E0
1.595523542E0,-1.653162231E0,5.203778687E0,7.151528320E0,8.997589416E0
1.605497542E0,-1.670675812E0,5.121449890E0,7.311545563E0,9.081800766E0
1.615471542E0,-1.748663635E0,5.013674011E0,7.707023163E0,9.359110942E0
1.625445542E0,-1.742825775E0,4.886588287E0,8.187673645E0,9.692996776E0
1.635419542E0,-1.626068573E0,4.706063690E0,8.716224518E0,1.003811259E1
1.645393542E0,-1.448088684E0,4.556674347E0,9.199868774E0,1.036811590E1
1.655367542E0,-1.334774323E0,4.398453369E0,9.502389679E0,1.055572945E1
1.665342542E0,-1.340462494E0,4.269870758E0,9.438173218E0,1.044546551E1
1.675316542E0,-1.351090393E0,4.201313324E0,9.247918854E0,1.024697429E1
1.685290542E0,-1.391805725E0,4.183051300E0,9.121731262E0,1.013119058E1
1.695264542E0,-1.486408997E0,4.159550171E0,9.013057251E0,1.003725412E1
1.705238542E0,-1.495390320E0,4.148024139E0,9.067993011E0,1.008319363E1
1.715212542E0,-1.409019928E0,4.123026123E0,9.156908112E0,1.014069267E1
1.725186542E0,-1.297801208E0,4.073179779E0,9.171577606E0,1.011893854E1
1.735161542E0,-1.153052216E0,3.991599426E0,9.023984528E0,9.934520227E0
1.745135542E0,-1.055006104E0,3.963457947E0,8.756790161E0,9.669716164E0
1.755109542E0,-1.067430267E0,3.982618103E0,8.333171082E0,9.297440218E0
1.765083542E0,-1.216370544E0,4.008065186E0,7.823031921E0,8.873780044E0
1.775057542E0,-1.374292145E0,4.087250519E0,7.282805328E0,8.463660506E0
1.785031542E0,-1.471889191E0,4.174519043E0,6.844816132E0,8.151354176E0
1.795005542E0,-1.467248840E0,4.217928772E0,6.693331146E0,8.046391994E0
1.804980542E0,-1.406774597E0,4.186344452E0,6.743327179E0,8.060828498E0
1.814954542E0,-1.243164825E0,4.213887177E0,7.125781860E0,8.371324330E0
1.824928542E0,-8.208929443E-1,4.224515076E0,7.803871765E0,8.911835242E0
1.834902542E0,-3.366499329E-1,4.196074219E0,8.428672485E0,9.421406046E0
1.844876542E0,1.923500061E-1,4.117188263E0,8.905281372E0,9.812862683E0
1.854850542E0,6.565347290E-1,4.039649506E0,9.311237183E0,1.017098539E1
1.864824542E0,9.656419373E-1,3.964206390E0,9.660161591E0,1.048647313E1
1.874799542E0,1.187630310E0,3.879482574E0,9.978848877E0,1.077210637E1
1.884773542E0,1.338067474E0,3.827091522E0,1.021760239E1,1.099256351E1
1.894747542E0,1.413809967E0,3.762126617E0,1.023960663E1,1.100009087E1
1.904721542E0,1.440304871E0,3.646117859E0,1.010294083E1,1.083688456E1
1.914695542E0,1.450633392E0,3.541335754E0,9.772727509E0,1.049531320E1
1.924669542E0,1.418600006E0,3.556154938E0,9.317224731E0,1.007319913E1
1.934643542E0,1.370549927E0,3.720213776E0,8.833430786E0,9.682349771E0
1.944618542E0,1.375489655E0,3.974684601E0,8.411757660E0,9.404666735E0
1.954592542E0,1.339564362E0,4.224515076E0,8.103847961E0,9.236520562E0
1.964566917E0,1.345402222E0,4.429888000E0,7.884553986E0,9.143314847E0
1.974540917E0,1.395398254E0,4.573589172E0,7.753726044E0,9.109616993E0
1.984514917E0,1.297651520E0,4.593797150E0,7.642657013E0,9.010942123E0
1.994488917E0,1.199006653E0,4.662354584E0,7.527995453E0,8.935652341E0
2.004462917E0,1.124761047E0,4.775968323E0,7.583979034E0,9.032812343E0
2.014437917E0,1.096170502E0,4.816384277E0,7.705975342E0,9.153207265E0
2.024411917E0,1.038989410E0,4.784051514E0,7.808661804E0,9.216390131E0
2.034385917E0,9.509724426E-1,4.665797424E0,7.750283203E0,9.096202720E0
2.044359917E0,7.464976501E-1,4.511618042E0,7.612120514E0,8.880108942E0
2.054333917E0,4.652325439E-1,4.373605042E0,7.478149109E0,8.675688818E0
2.064307917E0,2.685415649E-1,4.339625702E0,7.387737122E0,8.572229907E0
2.074281917E0,1.393601990E-1,4.422253876E0,7.366780701E0,8.593323484E0
2.084256917E0,9.071136475E-2,4.513713684E0,7.462132416E0,8.721540000E0
2.094230917E0,1.321751404E-1,4.559219055E0,7.506290588E0,8.783413178E0
2.104204917E0,1.332229614E-1,4.584067383E0,7.411537628E0,8.715636072E0
2.114178917E0,5.613327026E-2,4.649780731E0,7.244634705E0,8.608620319E0
2.124152917E0,-6.496490479E-2,4.786446533E0,7.072642365E0,8.540290444E0
2.134126917E0,-1.032852173E-1,5.014721832E0,6.920858002E0,8.547302403E0
2.144100917E0,-4.221221924E-2,5.208419037E0,6.963668976E0,8.696096615E0
2.154075917E0,8.741821289E-2,5.329517212E0,6.990163879E0,8.790550991E0
2.164049917E0,1.833686829E-1,5.440885620E0,7.048542480E0,8.906110908E0
2.174023917E0,2.152523804E-1,5.579497375E0,7.187453613E0,9.101462190E0
2.183997917E0,2.721340942E-1,5.682034149E0,7.520361328E0,9.429496463E0
2.193971917E0,3.571572876E-1,5.630840607E0,7.890391846E0,9.700113955E0
2.203945917E0,4.620890808E-1,5.594765625E0,8.179291077E0,9.920470313E0
2.213919917E0,5.228627014E-1,5.675298157E0,8.386011200E0,1.013940720E1
2.223894917E0,5.771997070E-1,5.841302948E0,8.602760468E0,1.041448353E1
2.233868917E0,6.866221619E-1,5.926326141E0,8.776848450E0,1.061253317E1
2.243842917E0,8.755293274E-1,5.957012329E0,8.792266388E0,1.065628902E1
2.253816917E0,8.547225952E-1,5.893694000E0,8.621022491E0,1.047798685E1
2.263790917E0,6.756948853E-1,5.824088745E0,8.447682953E0,1.028299181E1
2.273764917E0,5.577401733E-1,5.704487457E0,8.431366882E0,1.019510661E1
2.283738917E0,5.592370605E-1,5.555547180E0,8.528514862E0,1.019374398E1
2.293713917E0,6.718029785E-1,5.354215851E0,8.575517120E0,1.013205016E1
2.303687917E0,7.209008789E-1,5.265899506E0,8.535101166E0,1.005471768E1
2.313661917E0,7.304809570E-1,5.343438263E0,8.391100616E0,9.974793454E0
2.323635917E0,7.767347717E-1,5.514233093E0,8.167615356E0,9.885343905E0
2.333609917E0,9.095086670E-1,5.806126099E0,8.054001617E0,9.970218069E0
2.343583917E0,1.231938171E0,6.051615601E0,8.076005859E0,1.016669040E1
2.353557917E0,1.563947754E0,6.173611908E0,7.959548035E0,1.019381290E1
2.363532917E0,1.729503479E0,6.237678680E0,7.712411957E0,1.006881899E1
2.373506917E0,1.656605072E0,6.166277161E0,7.637268219E0,9.954656209E0
2.383480917E0,1.504521332E0,6.006409607E0,7.645501099E0,9.838405758E0
2.393454917E0,1.351539459E0,5.852230225E0,7.685917053E0,9.754413281E0
2.403428917E0,1.163380737E0,5.685327301E0,7.559579773E0,9.530144154E0
2.413402917E0,9.108558655E-1,5.533243561E0,7.303462372E0,9.207985954E0
2.423376917E0,7.216493225E-1,5.477559357E0,7.150031433E0,9.035894186E0
2.433351917E0,6.083349609E-1,5.554499359E0,7.084168396E0,9.022636888E0
2.443325917E0,7.717950439E-1,5.681734772E0,6.800957336E0,8.895549353E0
2.453299917E0,8.562194824E-1,5.874833221E0,6.741381226E0,8.982928142E0
2.463273917E0,9.385482788E-1,6.143075409E0,6.731651459E0,9.161516234E0
2.473247917E0,1.048270111E0,6.405180359E0,6.837930450E0,9.427751508E0
2.483221917E0,1.179996185E0,6.644532623E0,7.127877502E0,9.815744621E0
2.493195917E0,1.250200195E0,6.770121460E0,7.448510742E0,1.014287225E1
2.503170917E0,1.310375061E0,6.728807373E0,7.566465454E0,1.021006028E1
2.513144917E0,1.226100311E0,6.633006592E0,7.536527710E0,1.011431403E1
2.523118917E0,1.011446686E0,6.501729584E0,7.284152527E0,9.816027201E0
2.533092917E0,7.241940308E-1,6.442452850E0,7.095844116E0,9.611485808E0
2.543066917E0,5.143304443E-1,6.440357208E0,6.940467224E0,9.482237187E0
2.553040917E0,2.888992310E-1,6.423592072E0,6.861132202E0,9.403251191E0
2.563014917E0,1.077758789E-1,6.469995575E0,7.013964386E0,9.542963627E0
2.572989917E0,1.026864624E-1,6.515500946E0,7.184609528E0,9.699531491E0
2.582963917E0,-3.861968994E-2,6.613547058E0,7.354206848E0,9.890644799E0
2.592937917E0,-2.034269714E-1,6.725514221E0,7.206763458E0,9.859582325E0
2.602911917E0,-3.219804382E-1,6.806196442E0,7.175179138E0,9.895007684E0
2.612885917E0,-4.894821167E-1,6.786587219E0,7.453001404E0,1.009180800E1
2.622859917E0,-5.478607178E-1,6.639443207E0,7.726183319E0,1.020177760E1
2.632834917E0,-6.914122009E-1,6.487060089E0,8.095764771E0,1.039718263E1
2.642808917E0,-7.417076111E-1,6.334078217E0,8.359366608E0,1.051426113E1
2.652782917E0,-7.701484680E-1,6.181994476E0,8.305778046E0,1.038249167E1
2.662756917E0,-8.105644226E-1,6.140530701E0,8.228688354E0,1.029924483E1
2.672730917E0,-9.355545044E-1,6.156098328E0,8.034093018E0,1.016461802E1
2.682704917E0,-1.218166809E0,6.144123230E0,7.747738495E0,9.963013220E0
2.692678917E0,-1.469194794E0,6.210884399E0,7.610174561E0,9.932188843E0
2.702653917E0,-1.626667328E0,6.211632843E0,7.741301880E0,1.005774249E1
2.712627917E0,-1.680255890E0,6.049370270E0,7.904911652E0,1.009483872E1
2.722601917E0,-1.666185150E0,5.877377930E0,8.081843719E0,1.013093985E1
2.732575917E0,-1.606010284E0,5.814658356E0,8.136629791E0,1.012888272E1
2.742549917E0,-1.581461334E0,5.818849640E0,7.887248383E0,9.928177987E0
2.752523917E0,-1.696721649E0,5.945186920E0,7.526947632E0,9.740587894E0
2.762497917E0,-1.790127411E0,6.017037506E0,7.204368439E0,9.555742833E0
2.772472917E0,-1.874402161E0,6.026318207E0,6.965764618E0,9.399562293E0
2.782446917E0,-1.963167572E0,6.013145599E0,6.992109833E0,9.428761681E0
2.792420917E0,-2.030228119E0,5.949378204E0,7.204967194E0,9.561824067E0
2.802394917E0,-1.889820099E0,5.776637421E0,7.626041565E0,9.751793161E0
2.812368917E0,-1.668280792E0,5.478307800E0,7.973319397E0,9.816763182E0
2.822342917E0,-1.783690796E0,5.378016357E0,8.519982605E0,1.023204361E1
2.832316917E0,-1.979034576E0,5.107079773E0,9.057514801E0,1.058477284E1
2.842291917E0,-2.105222168E0,4.602479095E0,9.032217407E0,1.035353686E1
2.852265917E0,-2.322570190E0,4.331841888E0,8.614286499E0,9.917919052E0
2.862239917E0,-2.680326233E0,4.451742554E0,8.244255981E0,9.745251006E0
2.872213917E0,-2.872077484E0,4.569996643E0,7.622299347E0,9.339868614E0
2.882187917E0,-2.944377136E0,4.762646027E0,6.901548157E0,8.887267345E0
2.892161917E0,-2.946023712E0,5.125641174E0,6.610702972E0,8.868632755E0
2.902135917E0,-2.981050873E0,5.627996521E0,6.690487061E0,9.237078881E0
2.912110917E0,-3.135379944E0,6.171815643E0,7.134912872E0,9.941272425E0
2.922084917E0,-3.320993958E0,6.704857178E0,8.179141388E0,1.108523633E1
2.932058917E0,-3.447031860E0,7.094347229E0,9.602232056E0,1.242636921E1
2.942032917E0,-3.486998749E0,7.240892487E0,1.086530548E1,1.351460497E1
2.952006917E0,-3.369493103E0,7.075336761E0,1.170026917E1,1.408226447E1
2.961980917E0,-2.531086578E0,6.421346741E0,1.171463928E1,1.359679619E1
2.971955542E0,-1.066382446E0,5.382507019E0,1.084794159E1,1.215674258E1
2.981929542E0,-9.593550110E-1,5.029541016E0,1.112905701E1,1.225041039E1
2.991903542E0,-1.213526459E0,4.937781830E0,1.089239914E1,1.202076099E1
3.001877542E0,-1.432521057E0,4.789889374E0,1.035830978E1,1.150172763E1
3.011851542E0,-1.582509155E0,4.654720459E0,9.578281860E0,1.076634762E1
3.021825542E0,-1.837279358E0,4.557422791E0,8.874146118E0,1.014377480E1
3.031799542E0,-2.062860260E0,4.531826019E0,8.250692596E0,9.636740520E0
3.041774542E0,-2.015558624E0,4.611759796E0,7.782915344E0,9.268472163E0
3.051748542E0,-1.761686554E0,4.830155640E0,7.634124756E0,9.204010202E0
3.061722542E0,-1.416204987E0,5.041366425E0,7.629035339E0,9.253280078E0
3.071696542E0,-1.035696259E0,5.256469116E0,7.838000793E0,9.494071347E0
3.081670542E0,-5.911207581E-1,5.466482391E0,8.138276367E0,9.821578066E0
3.091644542E0,-2.736309814E-1,5.571863251E0,8.203390961E0,9.920491785E0
3.101618542E0,-3.119512939E-1,5.539530487E0,7.902816010E0,9.655993605E0
3.111593542E0,-4.891827393E-1,5.515879669E0,7.463778992E0,9.293665860E0
3.121567542E0,-6.803352356E-1,5.567372589E0,6.935228119E0,8.919410442E0
3.131541542E0,-9.319619751E-1,5.654940491E0,6.526128845E0,8.685462727E0
3.141515542E0,-1.211430817E0,5.712570648E0,6.237828369E0,8.544678508E0
3.151489542E0,-1.270108795E0,5.661377106E0,5.952671356E0,8.312560578E0
3.161463542E0,-1.432521057E0,5.663023682E0,5.773194580E0,8.212900186E0
3.171438542E0,-1.520088959E0,5.667214966E0,5.545967102E0,8.073769071E0
3.181412542E0,-1.640139313E0,5.750591583E0,5.312153320E0,7.998645724E0
3.191386542E0,-1.689985657E0,5.863456879E0,4.996459808E0,7.886747663E0
3.201360542E0,-1.557211761E0,5.889502716E0,4.627626801E0,7.650234017E0
3.211334542E0,-1.596579895E0,5.981112213E0,4.398752747E0,7.594194914E0
3.221308542E0,-1.672921143E0,6.239474945E0,4.493206329E0,7.868838279E0
3.231282542E0,-1.689835968E0,6.473139038E0,4.800217896E0,8.234024924E0
3.241257542E0,-1.664388885E0,6.675967255E0,5.235512695E0,8.645769042E0
3.251231542E0,-1.575922852E0,6.815327454E0,5.681435394E0,9.011710674E0
3.261205542E0,-1.541195068E0,6.928192749E0,5.920937347E0,9.242977663E0
3.271179542E0,-1.413660278E0,6.873406677E0,5.745053101E0,9.069056724E0
3.281153542E0,-1.443747711E0,6.711293793E0,5.680686951E0,8.910447579E0
3.291127542E0,-1.578018494E0,6.597530365E0,5.735473022E0,8.883310198E0
3.301102542E0,-1.444196777E0,6.386169891E0,5.779930573E0,8.733639999E0
3.311076542E0,-1.546284485E0,6.215075684E0,6.077362061E0,8.829070793E0
3.321050542E0,-1.726958771E0,5.997727661E0,6.334976349E0,8.893089960E0
3.331024542E0,-1.952689362E0,5.600603485E0,6.804849243E0,9.026944575E0
3.340998542E0,-2.197729797E0,5.353317719E0,7.141199799E0,9.191559249E0
3.350972542E0,-2.457888794E0,5.352868652E0,7.139702911E0,9.255796983E0
3.360946542E0,-2.767295380E0,5.446274414E0,7.156018982E0,9.408955116E0
3.370921542E0,-2.916684723E0,5.776936798E0,7.851772156E0,1.017498769E1
3.380895542E0,-2.844983826E0,6.092929688E0,8.516090698E0,1.085087674E1
3.390869542E0,-2.801574097E0,6.250252533E0,8.326584778E0,1.078176647E1
3.400843542E0,-2.843786316E0,6.176455994E0,7.906258850E0,1.042807069E1
3.410817542E0,-2.847977600E0,6.039341125E0,7.463030548E0,1.001406224E1
3.420791542E0,-2.822231140E0,5.873036957E0,7.063062286E0,9.609599397E0
3.430765542E0,-2.775228882E0,5.612728271E0,6.837780762E0,9.271454025E0
3.440740542E0,-2.750081177E0,5.383255463E0,6.653064880E0,8.989196747E0
3.450714542E0,-3.323688354E0,5.351371765E0,6.490203552E0,9.044712610E0
3.460688542E0,-3.893253937E0,5.615572357E0,6.746919708E0,9.602760263E0
3.470662542E0,-4.108356628E0,5.886209564E0,7.222181396E0,1.018263037E1
3.480636542E0,-4.024830322E0,6.052513733E0,7.779023438E0,1.064637907E1
3.490610542E0,-3.284170532E0,6.215824127E0,8.315208435E0,1.088875277E1
3.500585542E0,-2.546953583E0,6.540798340E0,8.533155212E0,1.104915170E1
3.510559542E0,-2.134860535E0,7.024592285E0,8.744515686E0,1.141792805E1
3.520533542E0,-1.678609314E0,7.470514984E0,8.940607910E0,1.177118487E1
3.530507542E0,-1.112037506E0,7.710765381E0,9.269923096E0,1.210883993E1
3.540481542E0,-3.150947571E-1,7.602241058E0,9.769584045E0,1.238297728E1
3.550455542E0,6.039939880E-1,7.380701752E0,1.039453445E1,1.276267658E1
3.560429542E0,1.440005493E0,6.824757843E0,1.076845688E1,1.283006621E1
3.570404542E0,2.003134460E0,6.181695099E0,1.141960281E1,1.313899655E1
3.580378542E0,2.237397308E0,5.536536713E0,1.190743835E1,1.332089613E1
3.590352542E0,2.174977112E0,4.810696106E0,1.236114487E1,1.344139966E1
3.600326542E0,2.113305359E0,3.950135651E0,1.298504745E1,1.373612349E1
3.610300542E0,2.038311310E0,2.917283478E0,1.353709946E1,1.399708247E1
3.620274542E0,1.814077606E0,1.926793213E0,1.382075958E1,1.407184441E1
3.630249542E0,1.549727325E0,1.179098053E0,1.366643051E1,1.380446485E1
3.640223542E0,1.301393738E0,7.182064819E-1,1.297891022E1,1.306374972E1
3.650197542E0,1.050066376E0,5.924679565E-1,1.179397430E1,1.185544126E1
3.660171542E0,9.451345825E-1,8.346643066E-1,1.019694534E1,1.027461134E1
3.670145542E0,1.072968750E0,1.252894592E0,8.573870544E0,8.731108916E0
3.680119542E0,1.387165375E0,1.875000916E0,7.237449646E0,7.603981430E0
3.690093542E0,1.791474609E0,2.632725220E0,6.519093475E0,7.255287940E0
3.700068542E0,2.188149719E0,3.409759369E0,6.244714050E0,7.443850597E0
3.710042542E0,2.443219299E0,3.896846466E0,5.847290497E0,7.439458252E0
3.720016542E0,2.560126190E0,4.095333710E0,5.614374847E0,7.405890171E0
3.729990542E0,2.360890503E0,4.113895111E0,5.680088196E0,7.400090463E0
3.739964542E0,2.041155396E0,3.961961060E0,5.862558746E0,7.364308918E0
3.749938542E0,1.945803680E0,3.815116425E0,6.013594666E0,7.382722133E0
3.759913542E0,2.012714539E0,3.883823547E0,6.201753387E0,7.589258873E0
3.769887542E0,1.922452240E0,3.890709229E0,6.077960815E0,7.468269451E0
3.779861542E0,1.675316162E0,3.687731323E0,5.939498749E0,7.189137079E0
3.789835542E0,1.450633392E0,3.728147278E0,5.805227966E0,7.050112843E0
3.799809542E0,1.365909576E0,3.782633972E0,5.754034424E0,7.020180973E0
3.809783542E0,1.213825836E0,3.641028442E0,5.941295013E0,7.073149773E0
3.819757542E0,1.311273193E0,3.530408478E0,6.269263000E0,7.313472498E0
3.829732542E0,1.250948639E0,3.482508087E0,6.425238647E0,7.414609009E0
3.839706542E0,9.291178894E-1,3.457659760E0,6.554569702E0,7.468671572E0
3.849680542E0,6.554869080E-1,3.451821899E0,6.682852936E0,7.550182837E0
3.859654542E0,1.758842468E-1,3.497027893E0,6.797065430E0,7.645929493E0
3.869628542E0,-2.980302429E-1,3.539539490E0,6.860234070E0,7.725281439E0
3.879602542E0,-6.710545349E-1,3.628604279E0,6.938371582E0,7.858631141E0
3.889577542E0,-1.049168243E0,3.598965912E0,6.997049561E0,7.938010594E0
3.899551542E0,-1.276545410E0,3.526067505E0,6.928641815E0,7.878375317E0
3.909525542E0,-1.241817627E0,3.675157471E0,6.814129944E0,7.840998683E0
3.919499542E0,-1.004111938E0,3.856280823E0,6.682553558E0,7.780466864E0
3.929473542E0,-6.700067139E-1,4.148922272E0,6.620732117E0,7.841974163E0
3.939447542E0,-3.049159241E-1,4.337829437E0,7.434140625E0,8.612559711E0
3.949421542E0,2.529739380E-2,4.103716278E0,8.418493652E0,9.365477170E0
3.959396542E0,1.302291870E-1,3.692970428E0,9.229956207E0,9.942186973E0
3.969371208E0,9.595046997E-2,3.543281708E0,1.002944366E1,1.063737712E1
3.979345208E0,-8.756790161E-2,3.508553925E0,1.063298859E1,1.119723471E1
3.989319208E0,-4.123924255E-1,3.349883881E0,1.089075256E1,1.140176657E1
3.999293208E0,-6.480024719E-1,3.325035553E0,1.107486969E1,1.158138624E1
4.009267208E0,-7.301815796E-1,3.491339722E0,1.118339401E1,1.173843771E1
4.019242208E0,-6.936575317E-1,3.807931366E0,1.084165466E1,1.151186249E1
4.029216208E0,-4.990621948E-1,4.081113281E0,1.034813095E1,1.113500619E1
4.039190208E0,-5.586383057E-1,4.159101105E0,1.009919861E1,1.093636189E1
4.049164208E0,-4.885839844E-1,4.226610718E0,1.013796799E1,1.099460538E1
4.059138208E0,-4.191284180E-2,4.479584656E0,1.037357803E1,1.129953789E1
4.069112208E0,4.487667847E-1,4.901407471E0,1.050036438E1,1.159667361E1
4.079086208E0,7.873626709E-1,5.321883087E0,1.043510010E1,1.174025952E1
4.089061208E0,8.674461365E-1,5.459447021E0,1.036429733E1,1.174634768E1
4.099035208E0,7.376660156E-1,5.324876862E0,1.060918808E1,1.189341568E1
4.109009208E0,5.941145325E-1,4.977748718E0,1.125973526E1,1.232528265E1
4.118983208E0,4.147874451E-1,4.504732361E0,1.186298080E1,1.269625834E1
4.128957208E0,2.266287231E-1,4.057013397E0,1.235515732E1,1.300617663E1
4.138931208E0,1.092727661E-1,3.706741791E0,1.267534149E1,1.320667093E1
4.148906208E0,-1.092727661E-2,3.401676178E0,1.267189865E1,1.312053870E1
4.158880208E0,-3.832031250E-2,3.302282867E0,1.248972748E1,1.291897183E1
4.168854208E0,-6.361770630E-2,3.342998199E0,1.213631241E1,1.258847739E1
4.178828208E0,-1.474433899E-1,3.460354156E0,1.161419815E1,1.211962826E1
4.188802208E0,-2.148033142E-1,3.666325836E0,1.095422058E1,1.155348580E1
4.198776208E0,-2.517764282E-1,3.866160278E0,1.024918671E1,1.095702582E1
4.208750208E0,-2.821632385E-1,3.979923706E0,9.660760345E0,1.045225809E1
4.218725208E0,-1.227447510E-2,4.143234100E0,9.738598480E0,1.058332839E1
4.228699208E0,4.796026611E-1,4.563110962E0,8.348439331E0,9.526197543E0
4.238673208E0,1.595681763E-1,4.199666748E0,7.692054291E0,8.765293036E0
4.248647208E0,1.797761536E-1,3.733685760E0,8.017028503E0,8.845647226E0
4.258621208E0,7.051835632E-1,3.410507812E0,1.002285736E1,1.061067939E1
4.268595208E0,2.201322327E0,2.343077545E0,1.615650238E1,1.647326323E1
4.278570208E0,2.540816345E0,2.025737457E0,1.632175873E1,1.664209025E1
4.288544208E0,1.486408997E0,1.923200684E0,1.273147476E1,1.296142593E1
4.298518208E0,7.297325134E-1,1.088237000E0,1.385952896E1,1.392132581E1
4.308492208E0,2.264790344E-1,6.445596313E-1,1.388392822E1,1.390072706E1
4.318466208E0,-4.561015320E-1,5.953120422E-1,1.301244049E1,1.303403363E1
4.328440208E0,-1.538350983E0,1.474583588E0,1.100541412E1,1.120981983E1
4.338414208E0,-1.791773987E0,2.292482758E0,8.770711212E0,9.240741658E0
4.348389208E0,-1.722917175E0,2.350112915E0,7.379803619E0,7.934291132E0
4.358363208E0,-2.015109558E0,2.042053528E0,6.625971222E0,7.220397757E0
4.368337208E0,-2.392923889E0,1.791624298E0,6.535708923E0,7.186897348E0
4.378311208E0,-2.287543030E0,1.236428833E0,7.161856842E0,7.619304614E0
4.388285208E0,-2.173779602E0,5.351371765E-1,8.740773468E0,9.022904764E0
4.398259208E0,-2.406695251E0,-1.354682922E-1,1.050769913E1,1.078064352E1
4.408234208E0,-2.514022064E0,-4.861889648E-1,1.064376617E1,1.094744011E1
4.418208208E0,-2.410587158E0,-7.824229431E-1,1.074555450E1,1.104038304E1
4.428182208E0,-2.251468048E0,-7.734416199E-1,1.044752426E1,1.071532004E1
4.438156208E0,-1.403182068E0,3.218307495E-2,9.686207428E0,9.787367879E0
4.448130208E0,-1.152603149E-2,9.244775391E-1,8.882378998E0,8.930366635E0
4.458104208E0,1.012494507E0,1.096769257E0,8.700058136E0,8.827177323E0
4.468078208E0,1.478625183E0,1.151405640E0,8.023764496E0,8.239712620E0
4.478053208E0,1.579515381E0,9.645941162E-1,6.996151428E0,7.236811829E0
4.488027208E0,1.706750793E0,9.310638428E-2,7.128625946E0,7.330687208E0
4.498001208E0,2.131417694E0,-4.718188477E-1,7.132817230E0,7.459399175E0
4.507975208E0,2.710713043E0,-3.312611389E-1,7.055278473E0,7.565358780E0
4.517949208E0,3.187172241E0,2.799179077E-2,7.119195557E0,7.800115115E0
4.527923208E0,3.454665985E0,5.848338318E-1,7.728877716E0,8.486006035E0
4.537898208E0,3.246299286E0,9.984237671E-1,8.739426270E0,9.376186890E0
4.547872208E0,2.665956116E0,1.132694550E0,8.981023865E0,9.436583524E0
4.557846208E0,2.038610687E0,1.228046265E0,8.847651215E0,9.162148393E0
4.567820208E0,1.581012268E0,1.229842529E0,8.861871643E0,9.085421369E0
4.577794208E0,1.313668213E0,1.072070618E0,8.631500702E0,8.796468834E0
4.587768208E0,1.237326965E0,7.527845764E-1,8.050708466E0,8.179949232E0
4.597742208E0,1.427132263E0,5.471122742E-1,8.108338623E0,8.251132865E0
4.607717208E0,1.893262939E0,3.501219177E-1,8.125702515E0,8.350692862E0
4.617691208E0,2.478994904E0,3.960763550E-1,7.815098419E0,8.208413703E0
4.627665208E0,3.282224579E0,4.528083801E-1,7.487280121E0,8.187636852E0
4.637639208E0,4.508175201E0,3.107537842E-1,6.562952271E0,7.968221512E0
4.647613208E0,5.466482391E0,9.610015869E-2,5.646258545E0,7.859510197E0
4.657587208E0,5.554798737E0,5.487588501E-1,5.828130341E0,8.069946006E0
4.667562208E0,5.038821716E0,1.487157440E0,6.900799713E0,8.673084700E0
4.677536208E0,4.000281372E0,1.519190826E0,7.175628204E0,8.354629372E0
4.687510208E0,3.096311188E0,1.338366852E0,7.192393341E0,7.944110446E0
4.697484208E0,2.863694916E0,1.448837128E0,7.117998047E0,7.808058260E0
4.707458208E0,3.325933685E0,1.707798615E0,8.031248932E0,8.858858301E0
4.717432208E0,3.636986847E0,1.477727051E0,9.192683716E0,9.995838357E0
4.727407208E0,3.531755676E0,1.155297546E0,9.609267426E0,1.030271959E1
4.737381208E0,3.188968506E0,1.208586731E0,8.897347870E0,9.528536149E0
4.747355208E0,2.869832153E0,1.469943237E0,6.934629364E0,7.647597932E0
4.757329208E0,2.869083710E0,1.644031219E0,5.570066986E0,6.477663638E0
4.767303208E0,2.404150543E0,2.109862518E0,5.752088470E0,6.581639724E0
4.777277208E0,1.608704681E0,1.932481384E0,6.328988800E0,6.810177258E0
4.787251208E0,4.556524658E-1,1.469643860E0,7.452552338E0,7.609731177E0
4.797226208E0,-8.523275757E-1,1.143472137E0,9.038953400E0,9.150774251E0
4.807200208E0,-2.215093689E0,1.114432526E0,1.100376755E1,1.127969415E1
4.817174208E0,-3.242856445E0,5.465135193E-1,1.659044998E1,1.691324409E1
4.827148208E0,-2.776127014E0,4.697232056E-1,1.743364655E1,1.765954566E1
4.837122208E0,-4.130809937E0,-6.966513062E-1,1.419228699E1,1.479763237E1
4.847096208E0,-3.716770935E0,9.352551270E-1,1.678534470E1,1.721734256E1
4.857071208E0,-3.113675079E0,1.269959106E0,1.649704422E1,1.683627740E1
4.867045208E0,-2.599494324E0,7.119195557E-1,1.505105118E1,1.529046571E1
4.877019208E0,-1.933379517E0,8.584648132E-1,1.537228317E1,1.551715206E1
4.886993208E0,-1.638941803E0,9.337582397E-1,1.632115997E1,1.642979907E1
4.896967208E0,-1.571881256E0,5.083428955E-1,1.707663895E1,1.715636386E1
4.906941208E0,-1.376687164E0,3.966751099E-2,1.766446655E1,1.771807607E1
4.916915208E0,-1.029858398E0,-1.181044006E-1,1.797177750E1,1.800164835E1
4.926890208E0,-8.282276917E-1,-1.308279419E-1,1.791504547E1,1.793465727E1
4.936864208E0,-8.563691711E-1,-1.594184875E-1,1.731344650E1,1.733534575E1
4.946838208E0,-1.018032990E0,-1.796264648E-3,1.615665207E1,1.618869360E1
4.956812208E0,-8.942404175E-1,4.793032837E-1,1.464823883E1,1.468333404E1
4.966786292E0,-5.023553467E-1,9.565109253E-1,1.358170670E1,1.362461122E1
4.976760292E0,-1.794767761E-1,1.189576263E0,1.272758286E1,1.278431339E1
4.986734292E0,3.448828125E-1,1.365460510E0,1.233524872E1,1.241538511E1
4.996709292E0,6.593788147E-1,1.417701874E0,1.236578522E1,1.246424097E1
5.006683292E0,8.699908447E-1,1.462608490E0,1.232791397E1,1.244482103E1
5.016657292E0,9.180409241E-1,1.480421448E0,1.240694962E1,1.252864101E1
5.026631292E0,6.709048462E-1,1.587299194E0,1.271111710E1,1.282739763E1
5.036605292E0,3.692820740E-1,1.610201569E0,1.269929169E1,1.280629250E1
5.046579292E0,1.541793823E-2,1.586251373E0,1.197869019E1,1.208327148E1
5.056554292E0,-1.663041687E-1,1.564845886E0,1.072025711E1,1.083514247E1
5.066528292E0,-2.469863892E-2,1.720671844E0,9.285041656E0,9.443162615E0
5.076502292E0,2.914439392E-1,2.152374115E0,8.314160614E0,8.593190363E0
5.086476292E0,7.030879211E-1,2.774330750E0,7.707621918E0,8.221841604E0
5.096450292E0,9.864486694E-1,3.287164307E0,7.352260895E0,8.113832043E0
5.106424292E0,1.083596649E0,3.484004974E0,7.121590576E0,8.001845081E0
5.116398292E0,1.140029297E0,3.431464233E0,6.918762360E0,7.806656530E0
5.126373292E0,1.128802643E0,3.123554535E0,6.898704071E0,7.656559684E0
5.136347292E0,1.088536377E0,2.788551178E0,6.943610687E0,7.561392629E0
5.146321292E0,9.042695618E-1,2.565814362E0,7.093299408E0,7.597104927E0
5.156295292E0,6.571334839E-1,2.299368439E0,7.150181122E0,7.539496648E0
5.166269292E0,6.075865173E-1,2.139800262E0,7.368726654E0,7.697144863E0
5.176243292E0,5.441184998E-1,2.143093414E0,7.297923889E0,7.625523419E0
5.186218292E0,3.222798157E-1,2.114353180E0,7.123835907E0,7.437969594E0
5.196192292E0,1.514849854E-1,2.046544189E0,6.704108734E0,7.011160014E0
5.206166292E0,1.546284485E-1,1.985022125E0,6.297554169E0,6.604802140E0
5.216140292E0,1.782792664E-1,2.023641815E0,6.061944122E0,6.393283682E0
5.226114292E0,1.791773987E-1,2.132016449E0,5.771697693E0,6.155492908E0
5.236088292E0,1.468446350E-1,2.275567932E0,5.739364929E0,6.175765746E0
5.246062292E0,1.511856079E-2,2.314187622E0,5.721851349E0,6.172137051E0
5.256037292E0,1.167572021E-1,2.326162720E0,5.623356171E0,6.086608240E0
5.266011292E0,3.288661194E-1,2.472258911E0,5.511538696E0,6.049568237E0
5.275985292E0,4.456233215E-1,2.661764832E0,5.261558533E0,5.913338343E0
5.285959292E0,6.685098267E-1,2.901566162E0,4.992717590E0,5.813193659E0
5.295933292E0,8.319699097E-1,3.139122162E0,4.918771362E0,5.894113470E0
5.305907292E0,7.149133301E-1,3.387006683E0,4.939578094E0,6.031778104E0
5.315881292E0,4.662803650E-1,3.633544006E0,5.226830750E0,6.382775189E0
5.325856292E0,2.290237427E-1,3.761827240E0,5.536237335E0,6.697291982E0
5.335830292E0,1.453477478E-1,3.962410126E0,5.814808044E0,7.038026184E0
5.345804292E0,-2.125579834E-2,3.988306274E0,6.285728760E0,7.444288065E0
5.355778292E0,-5.837860107E-2,4.041595459E0,6.519841919E0,7.671130332E0
5.365752292E0,1.230441284E-1,4.140988770E0,6.876999207E0,8.028452275E0
5.375726292E0,2.856060791E-1,4.083358612E0,7.206913147E0,8.288243812E0
5.385700292E0,3.878434753E-1,3.987408142E0,7.287745056E0,8.316313742E0
5.395675292E0,4.547543335E-1,4.035757599E0,7.480095062E0,8.511519432E0
5.405649292E0,3.058140564E-1,4.106710052E0,7.590565338E0,8.635697531E0
5.415623292E0,-9.475296021E-2,4.032165070E0,7.764353943E0,8.749430006E0
5.425597292E0,-3.097059631E-1,4.176464996E0,8.063581696E0,9.086260364E0
5.435571292E0,-5.233117676E-1,4.332440643E0,8.458759918E0,9.518115175E0
5.445545292E0,-6.713539124E-1,4.379742279E0,8.997489624E0,1.002934086E1
5.455520292E0,-6.203100586E-1,4.482877808E0,9.586814117E0,1.060131987E1
5.465494292E0,-4.457730103E-1,4.597389679E0,9.948611755E0,1.096857244E1
5.475468292E0,-1.737886047E-1,4.791386261E0,9.992470551E0,1.108318783E1
5.485442292E0,-3.442840576E-3,5.025200043E0,9.791139221E0,1.100541024E1
5.495416292E0,-1.841171265E-1,5.150639191E0,9.741292877E0,1.102069735E1
5.505390292E0,-6.195616150E-1,5.157375183E0,9.638157349E0,1.094881055E1
5.515364292E0,-9.139993286E-1,5.270839233E0,9.531429291E0,1.093001763E1
5.525339292E0,-1.184786224E0,5.343587952E0,9.525890808E0,1.098636638E1
5.535313292E0,-1.643881531E0,5.269492035E0,9.583820343E0,1.105981488E1
5.545287292E0,-2.085163879E0,5.172643433E0,9.715546417E0,1.120249930E1
5.555261292E0,-2.435136108E0,5.066963196E0,1.003558090E1,1.150290780E1
5.565235292E0,-2.757266235E0,4.788841553E0,1.054631882E1,1.190631602E1
5.575209292E0,-3.031346283E0,4.344864807E0,1.132604736E1,1.250384978E1
5.585183292E0,-3.131637726E0,3.771706696E0,1.186298080E1,1.283601339E1
5.595158292E0,-3.003504181E0,3.227438507E0,1.189531357E1,1.268605067E1
5.605132292E0,-2.753374329E0,2.861748962E0,1.157527908E1,1.223755544E1
5.615106292E0,-2.519560547E0,2.648891602E0,1.122455841E1,1.180489405E1
5.625080292E0,-2.487527161E0,2.557581482E0,1.092443253E1,1.149226872E1
5.635054292E0,-2.424508209E0,2.635120239E0,1.033810181E1,1.094067858E1
5.645028292E0,-2.250420227E0,2.918031921E0,9.621990967E0,1.030349512E1
5.655003292E0,-2.395917664E0,3.248095551E0,8.658294983E0,9.552832992E0
5.664977292E0,-2.564916229E0,3.544928284E0,7.928412781E0,9.055663478E0
5.674951292E0,-2.820285187E0,3.834126892E0,7.403005371E0,8.801080961E0
5.684925292E0,-3.035836945E0,4.076023865E0,6.975494385E0,8.630631403E0
5.694899292E0,-3.126697998E0,4.288282471E0,6.866071930E0,8.678049935E0
5.704873292E0,-3.380719757E0,4.034560089E0,6.948700104E0,8.717303156E0
5.714847292E0,-3.162623291E0,3.785478058E0,7.032226410E0,8.589775229E0
5.724822292E0,-2.698588257E0,3.777843933E0,7.051236877E0,8.442418188E0
5.734796292E0,-2.400408325E0,3.697012024E0,6.877597961E0,8.168917416E0
5.744770292E0,-1.993853760E0,3.525319061E0,6.871760101E0,7.976491346E0
5.754744292E0,-1.648970947E0,3.270848236E0,6.746919708E0,7.677140022E0
5.764718292E0,-1.055904236E0,3.017275543E0,6.462511139E0,7.209919256E0
5.774692292E0,-5.725593567E-1,2.530787201E0,6.027216339E0,6.562015306E0
5.784666292E0,-1.354682922E-1,2.398761749E0,5.596861267E0,6.090752468E0
5.794641292E0,7.918533325E-1,2.562072144E0,5.705535278E0,6.304314251E0
5.804615292E0,1.863923950E0,2.687810669E0,6.264323273E0,7.066844044E0
5.814589292E0,2.278262329E0,2.872676239E0,6.777007141E0,7.705230289E0
5.824563292E0,1.830243988E0,3.180885315E0,7.047344971E0,7.945621158E0
5.834537292E0,1.102457428E0,3.527265015E0,6.998097382E0,7.913935672E0
5.844511292E0,4.875361633E-1,3.631747742E0,6.853348389E0,7.771464940E0
5.854486292E0,1.049317932E-1,3.631448364E0,6.652017059E0,7.579429983E0
5.864460292E0,-1.625619507E-1,3.772904205E0,6.757248230E0,7.740906676E0
5.874434292E0,-4.116439819E-1,3.926484833E0,6.927743683E0,7.973729770E0
5.884408292E0,-4.354444885E-1,3.950734406E0,7.243586884E0,8.262412794E0
5.894382292E0,-2.421963501E-1,3.873345337E0,7.524851990E0,8.466691245E0
5.904356292E0,1.246907043E-1,3.830234985E0,7.841593323E0,8.727934100E0
5.914330292E0,4.571493530E-1,3.886517944E0,8.409811707E0,9.275717773E0
5.924305292E0,6.813830566E-1,3.967499542E0,9.166188812E0,1.001121136E1
5.934279292E0,8.099656677E-1,3.936214600E0,9.565857697E0,1.037571507E1
5.944253292E0,9.075627136E-1,3.856430511E0,9.610015869E0,1.039462031E1
5.954227292E0,9.862989807E-1,3.760480042E0,9.367669830E0,1.014234854E1
5.964201292E0,1.071172485E0,3.771107941E0,9.143585815E0,9.948559049E0
5.974174542E0,1.129251709E0,3.937561798E0,8.999285889E0,9.887706956E0
5.984148542E0,1.076411591E0,4.222269745E0,8.894803162E0,9.904733565E0
5.994123542E0,8.988807678E-1,4.572092285E0,8.740174713E0,9.904679122E0
6.004097542E0,7.225474548E-1,4.956792297E0,8.866661682E0,1.018378879E1
6.014071542E0,5.783972168E-1,5.279371490E0,9.176517334E0,1.060258351E1
6.024045542E0,5.599855042E-1,5.471871185E0,9.303603058E0,1.080795947E1
6.034019542E0,6.487509155E-1,5.581443329E0,9.506580963E0,1.104302807E1
6.043993542E0,8.952882385E-1,5.569617920E0,9.977501678E0,1.146179412E1
6.053967542E0,1.177750854E0,5.361251221E0,1.023840912E1,1.161701911E1
6.063942542E0,1.425934753E0,5.013674011E0,1.015398468E1,1.141374706E1
6.073916542E0,1.821112976E0,4.731361084E0,1.030442184E1,1.148404718E1
6.083890542E0,2.139800262E0,4.604724426E0,1.055964111E1,1.171700698E1
6.093864542E0,2.096390533E0,4.568649445E0,1.070873108E1,1.182980694E1
6.103838542E0,1.821262665E0,4.473896484E0,1.096290253E1,1.197989897E1
6.113812542E0,1.351090393E0,4.385280762E0,1.134296219E1,1.223596845E1
6.123786542E0,8.120613098E-1,4.302502899E0,1.163710052E1,1.243354669E1
6.133761542E0,4.929249573E-1,4.201463013E0,1.194276489E1,1.266984214E1
6.143735542E0,4.942721558E-1,4.062102814E0,1.189591232E1,1.258005223E1
6.153709542E0,7.056326294E-1,3.797902222E0,1.138412659E1,1.202166032E1
6.163683542E0,1.082848206E0,3.620670776E0,1.070918015E1,1.135642358E1
6.173657542E0,1.382375336E0,3.730392609E0,1.016595978E1,1.091666290E1
6.183631542E0,1.445693665E0,3.965104523E0,9.902357941E0,1.076423601E1
6.193605542E0,1.497186584E0,4.136498108E0,9.941875763E0,1.087166399E1
6.203580542E0,1.584006042E0,4.167783051E0,9.988578644E0,1.093851882E1
6.213554542E0,1.469344482E0,3.902085571E0,1.054871384E1,1.134286598E1
6.223528542E0,5.899232483E-1,2.730322266E0,1.151435577E1,1.184833566E1
6.233502542E0,-5.195695496E-1,1.503922577E0,1.235156479E1,1.245362953E1
6.243476542E0,-6.515950012E-1,1.423839111E0,1.280946259E1,1.290481405E1
6.253450542E0,-7.164102173E-1,1.299148407E0,1.216729797E1,1.225741287E1
6.263425542E0,-5.617817688E-1,1.358574829E0,1.104612946E1,1.114353177E1
6.273399542E0,2.773731995E-1,1.559008026E0,1.024948608E1,1.037108514E1
6.283373542E0,1.004111938E0,2.034718781E0,9.862241364E0,1.011988765E1
6.293347542E0,1.395697632E0,2.497107239E0,9.545649719E0,9.965086302E0
6.303321542E0,1.550475769E0,2.572849731E0,8.757089539E0,9.257977535E0
6.313295542E0,1.484612732E0,2.772384796E0,8.241860962E0,8.821477458E0
6.323269542E0,1.312021637E0,2.884052582E0,8.519533539E0,9.089643106E0
6.333244542E0,4.510121155E-1,2.363435211E0,9.091643829E0,9.404638507E0
6.343218542E0,-5.014572144E-1,1.895208893E0,9.575587463E0,9.774208477E0
6.353192542E0,-1.176403656E0,1.732946320E0,1.018137772E1,1.039458901E1
6.363166542E0,-1.836231537E0,1.365011444E0,1.072848999E1,1.096975387E1
6.373140542E0,-2.104623413E0,1.031205597E0,1.084734283E1,1.109764260E1
6.383114542E0,-1.935325470E0,1.001866608E0,1.063912582E1,1.086002853E1
6.393088542E0,-1.477727051E0,1.123862915E0,1.031145721E1,1.047725608E1
6.403063542E0,-6.035449219E-1,1.250798950E0,1.027927414E1,1.037266799E1
6.413037542E0,4.754113770E-1,1.391206970E0,1.061307999E1,1.071442670E1
6.423011542E0,1.191372528E0,1.335672455E0,1.027837601E1,1.043304379E1
6.432985542E0,1.506018219E0,1.338366852E0,9.674232330E0,9.881805902E0
6.442959542E0,1.490450592E0,1.489702148E0,9.279802551E0,9.516059628E0
6.452933542E0,1.143621826E0,1.673819275E0,8.796906738E0,9.027464207E0
6.462907542E0,7.220983887E-1,1.967358856E0,8.219108276E0,8.482079215E0
6.472882542E0,2.439926147E-1,2.336640930E0,7.611372070E0,7.965701979E0
6.482856542E0,-3.561094666E-1,2.623594208E0,7.057523804E0,7.537818170E0
6.492830542E0,-8.686436462E-1,2.774630127E0,6.603667603E0,7.215368316E0
6.502804542E0,-1.053060150E0,2.791844330E0,6.074218597E0,6.767529979E0
6.512778542E0,-8.961863708E-1,3.021766205E0,5.802234192E0,6.603040408E0
6.522752542E0,-6.580316162E-1,3.244652710E0,5.717959442E0,6.607256390E0
6.532726542E0,-2.820135498E-1,3.503763885E0,5.848937073E0,6.823925402E0
6.542701542E0,1.640588379E-1,3.862567749E0,6.232140198E0,7.333888216E0
6.552675542E0,4.819976807E-1,4.188739471E0,6.514453125E0,7.759894306E0
6.562649542E0,4.067042542E-1,4.327949982E0,6.653663635E0,7.947817258E0
6.572623542E0,7.813751221E-2,4.357887726E0,6.764133911E0,8.046788084E0
6.582597542E0,-1.043330383E-1,4.290378113E0,6.817423096E0,8.055773544E0
6.592571542E0,-4.513114929E-1,3.796854401E0,6.869365082E0,7.861803993E0
6.602545542E0,-5.421725464E-1,3.590433655E0,7.218139801E0,8.080019003E0
6.612520542E0,-1.221459961E-1,3.901187439E0,7.884853363E0,8.798016574E0
6.622494542E0,8.113128662E-2,3.933220825E0,8.299940186E0,9.185086577E0
6.632468542E0,1.859133911E-1,3.752696228E0,8.307574310E0,9.117734570E0
6.642442542E0,3.727249146E-1,3.705993347E0,8.399034119E0,9.187877050E0
6.652416542E0,4.667294312E-1,3.641028442E0,8.320148163E0,9.093942486E0
6.662390542E0,5.349874878E-1,3.885170746E0,8.497678986E0,9.359022998E0
6.672364542E0,4.688250732E-1,4.056264954E0,8.892258453E0,9.784954917E0
6.682339542E0,1.989363098E-1,3.978576508E0,9.309291229E0,1.012578638E1
6.692313542E0,-5.284011841E-2,3.938759308E0,9.798324280E0,1.056048179E1
6.702287542E0,-3.390449524E-1,3.698059845E0,1.007854156E1,1.074093097E1
6.712261542E0,-2.537223816E-1,3.931574249E0,1.042043060E1,1.114033326E1
6.722235542E0,-4.900808716E-1,4.048780518E0,1.040845551E1,1.117894221E1
6.732209542E0,-4.821473694E-1,4.409230957E0,1.050290909E1,1.140109131E1
6.742183542E0,-4.369413757E-1,4.712350616E0,1.072175400E1,1.171977708E1
6.752158542E0,-5.279521179E-1,4.843627625E0,1.096529755E1,1.199905047E1
6.762132542E0,-6.415658569E-1,4.733157349E0,1.128263763E1,1.225203237E1
6.772106542E0,-8.665480042E-1,4.441563721E0,1.144609772E1,1.230819023E1
6.782080542E0,-1.058299255E0,4.530329132E0,1.177481415E1,1.266057375E1
6.792054542E0,-1.503922577E0,4.430935822E0,1.179621964E1,1.269038112E1
6.802028542E0,-1.677411804E0,4.180805969E0,1.147229324E1,1.232502987E1
6.812002542E0,-1.768721924E0,3.993246002E0,1.114881592E1,1.197374157E1
6.821977542E0,-1.865720215E0,3.807931366E0,1.095990875E1,1.175163193E1
6.831951542E0,-1.712139587E0,3.651955719E0,1.091949280E1,1.164059816E1
6.841925542E0,-1.575324097E0,3.285068665E0,1.105241638E1,1.163740650E1
6.851899542E0,-1.681004333E0,2.593207397E0,1.136107452E1,1.177389122E1
6.861873542E0,-1.674418030E0,2.087409210E0,1.188558380E1,1.218310532E1
6.871847542E0,-1.596879272E0,1.651066589E0,1.239168137E1,1.260276999E1
6.881821542E0,-1.628313904E0,1.150208130E0,1.265932480E1,1.281533805E1
6.891796542E0,-1.611548767E0,9.268725586E-1,1.257310410E1,1.270980443E1
6.901770542E0,-1.672921143E0,8.611592102E-1,1.207149719E1,1.221725439E1
6.911744542E0,-1.825004883E0,9.424401855E-1,1.136391861E1,1.154805103E1
6.921718542E0,-1.844913483E0,1.224603424E0,1.054871384E1,1.077862342E1
6.931692542E0,-1.683399353E0,1.495839386E0,9.602232056E0,9.862769859E0
6.941666542E0,-1.479673004E0,1.852547607E0,8.806037750E0,9.119630787E0
6.951640542E0,-1.556014252E0,2.073338470E0,8.208929443E0,8.608509474E0
6.961615542E0,-1.549427948E0,2.294129333E0,7.733817444E0,8.214358686E0
6.971589292E0,-1.490151215E0,2.454296265E0,7.322173462E0,7.865007629E0
6.981563292E0,-1.480421448E0,2.478396149E0,7.151678009E0,7.712366270E0
6.991537292E0,-1.477427673E0,2.461331635E0,7.103178864E0,7.661337736E0
7.001511292E0,-1.491947479E0,2.356848907E0,7.176526337E0,7.699556761E0
7.011485292E0,-1.442999268E0,2.185754700E0,7.354356537E0,7.806813086E0
7.021459292E0,-1.568737793E0,2.015259247E0,7.657176819E0,8.071837767E0
7.031434292E0,-1.668280792E0,1.961520996E0,8.013885040E0,8.417427093E0
7.041408292E0,-1.775457916E0,1.908231812E0,8.317004700E0,8.715857194E0
7.051382292E0,-1.852697296E0,1.874402161E0,8.593928833E0,8.988964541E0
7.061356292E0,-1.783990173E0,1.956431580E0,8.613238678E0,9.011000277E0
7.071330292E0,-1.498384094E0,2.012714539E0,8.511150970E0,8.873323253E0
7.081304292E0,-1.187630310E0,2.262844391E0,8.244405670E0,8.631405178E0
7.091278292E0,-9.725276184E-1,2.567011871E0,8.010292511E0,8.467593875E0
7.101253292E0,-8.120613098E-1,2.793490906E0,7.871231689E0,8.391622210E0
7.111227292E0,-6.547384644E-1,3.056194611E0,7.855065308E0,8.454055769E0
7.121201292E0,-8.714877319E-1,2.978356476E0,7.781418457E0,8.377384518E0
7.131175292E0,-1.063837738E0,2.935545502E0,7.461234283E0,8.088213348E0
7.141149292E0,-1.009800110E0,3.129841461E0,7.601193237E0,8.282133932E0
7.151123292E0,-1.430126038E0,3.048560486E0,7.839347992E0,8.531960997E0
7.161097292E0,-1.626517639E0,3.161575470E0,7.854616241E0,8.621839443E0
7.171072292E0,-1.487456818E0,3.349584503E0,7.892936554E0,8.702338282E0
7.181046292E0,-1.330732727E0,3.430266724E0,7.963290253E0,8.772204457E0
7.191020292E0,-1.120270386E0,3.546425171E0,8.033194885E0,8.852364503E0
7.200994292E0,-7.900570679E-1,3.594026184E0,7.966882782E0,8.775672945E0
7.210968292E0,-7.403604126E-1,3.549119568E0,7.896080017E0,8.688639875E0
7.220942292E0,-8.231382751E-1,3.623065796E0,7.752229156E0,8.596581837E0
7.230916292E0,-8.000862122E-1,3.741319885E0,7.760462036E0,8.652305094E0
7.240891292E0,-6.204597473E-1,3.903432770E0,8.119116211E0,9.030050151E0
7.250865292E0,-5.087919617E-1,3.898942108E0,8.549920349E0,9.410725626E0
7.260839292E0,-6.848258972E-1,3.710034943E0,8.803942108E0,9.578243181E0
7.270813292E0,-6.384223938E-1,3.710484009E0,9.134155426E0,9.879679655E0
7.280787292E0,-5.495072937E-1,3.776347046E0,9.361083527E0,1.010903754E1
7.290761292E0,-3.882925415E-1,3.830684052E0,9.466314697E0,1.021939457E1
7.300735292E0,-2.957849121E-1,3.820355530E0,9.580377502E0,1.031824782E1
7.310710292E0,-2.031275940E-1,3.917952576E0,9.661059723E0,1.042725698E1
7.320684292E0,-2.154020691E-1,4.067341919E0,9.913434906E0,1.071754916E1
7.330658292E0,-3.408412170E-1,4.014352112E0,1.018212616E1,1.095020040E1
7.340632292E0,-4.822970581E-1,3.962410126E0,1.047461792E1,1.120941234E1
7.350606292E0,-4.737648010E-1,4.207450562E0,1.043539948E1,1.126164533E1
7.360580292E0,-4.433779907E-1,4.453239441E0,1.031998947E1,1.124856027E1
7.370554292E0,-4.908293152E-1,4.628524933E0,1.025292892E1,1.125996039E1
7.380529292E0,-4.161346436E-1,4.754862213E0,1.005563919E1,1.113093717E1
7.390503292E0,-1.712438965E-1,4.919669495E0,9.643097076E0,1.082690139E1
7.400477292E0,-2.487826538E-1,5.003046112E0,9.697134705E0,1.091452173E1
7.410451292E0,-6.218069458E-1,5.086722107E0,9.940079498E0,1.118331642E1
7.420425292E0,-9.948312378E-1,5.161267090E0,1.002824615E1,1.132228281E1
7.430399292E0,-1.566043396E0,4.873715057E0,1.007914032E1,1.130463002E1
7.440373292E0,-2.024390259E0,4.426894226E0,1.010443771E1,1.121584638E1
7.450347292E0,-2.216889954E0,4.345762939E0,9.908794556E0,1.104465781E1
7.460322292E0,-2.337988129E0,4.578828278E0,9.617051239E0,1.090502322E1
7.470296292E0,-2.540966034E0,4.853956146E0,9.359736328E0,1.084537057E1
7.480270292E0,-2.578837280E0,5.180277557E0,9.166188812E0,1.083995824E1
7.490244292E0,-2.136956177E0,5.623206482E0,9.091494141E0,1.090148148E1
7.500218292E0,-1.330732727E0,6.215075684E0,8.902287598E0,1.093840664E1
7.510192292E0,-4.085005188E-1,6.950795746E0,8.862919464E0,1.127083740E1
7.520166292E0,3.996688843E-1,7.522606659E0,8.916208649E0,1.167253712E1
7.530141292E0,8.069718933E-1,7.702831879E0,8.753646698E0,1.168807739E1
7.540115292E0,7.373666382E-1,7.170089722E0,8.814719696E0,1.138653501E1
7.550089292E0,-9.478289795E-1,5.063071289E0,8.900790710E0,1.028382934E1
7.560063292E0,-1.859882355E0,4.213138733E0,9.139244843E0,1.023403619E1
7.570037292E0,-1.650467834E0,4.446503448E0,9.862091675E0,1.094332167E1
7.580011292E0,-1.989213409E0,3.796854401E0,1.025397675E1,1.111382528E1
7.589985292E0,-2.406695251E0,3.182382202E0,1.045515839E1,1.119062444E1
7.599960292E0,-2.588417358E0,3.083437958E0,1.046952850E1,1.121688554E1
7.609934292E0,-2.339934082E0,3.284769287E0,1.028930328E1,1.105145976E1
7.619908292E0,-1.594035187E0,3.363655243E0,9.778565369E0,1.046305240E1
7.629882292E0,-8.668473816E-1,3.392844543E0,9.100924530E0,9.751391992E0
7.639856292E0,-1.505868530E-1,3.629951477E0,8.611592102E0,9.346589895E0
7.649830292E0,2.113604736E-1,3.730242920E0,8.244854736E0,9.051906712E0
7.659804292E0,3.664379883E-1,3.830833740E0,7.929161224E0,8.813691716E0
7.669779292E0,4.912783813E-1,4.086202698E0,7.764503632E0,8.787828149E0
7.679753292E0,2.302212524E-1,4.138294373E0,7.664810944E0,8.713656462E0
7.689727292E0,-4.819976807E-2,4.115092621E0,7.726033630E0,8.753736697E0
7.699701292E0,-5.090913391E-1,3.969445496E0,8.096213837E0,9.031298358E0
7.709675292E0,-1.031355286E0,3.592529297E0,8.381819916E0,9.177410614E0
7.719649292E0,-1.244212646E0,3.417842560E0,8.578660583E0,9.317893017E0
7.729623292E0,-1.396446075E0,3.191662903E0,8.623417511E0,9.300543172E0
7.739598292E0,-1.552870789E0,3.110381927E0,8.404722290E0,9.095341675E0
7.749572292E0,-1.792073364E0,3.055296478E0,7.959697723E0,8.712241466E0
7.759546292E0,-1.902094574E0,3.032992859E0,7.517217865E0,8.326198045E0
7.769520292E0,-1.786684570E0,2.974015503E0,7.271878052E0,8.057122338E0
7.779494292E0,-1.517095184E0,2.831811218E0,7.102879486E0,7.795616048E0
7.789468292E0,-1.280287628E0,2.668650513E0,6.981781311E0,7.583277803E0
7.799442292E0,-1.038540344E0,2.550995178E0,6.807992706E0,7.344038884E0
7.809417292E0,-7.144642639E-1,2.582579498E0,6.766678619E0,7.277919729E0
7.819391292E0,-4.981640625E-1,2.844983826E0,6.778953094E0,7.368602680E0
7.829365292E0,-2.586621094E-1,3.218756561E0,6.890770569E0,7.609863266E0
7.839339292E0,1.631607056E-2,3.784130859E0,7.110513611E0,8.054769791E0
7.849313292E0,-1.333726501E-1,4.234693909E0,7.326664124E0,8.463476115E0
7.859287292E0,-4.288581848E-1,4.478387146E0,7.073241119E0,8.382756749E0
7.869261292E0,-6.159690857E-1,4.485272827E0,6.582112427E0,7.988823083E0
7.879235292E0,-7.692503357E-1,4.412224731E0,6.122268677E0,7.585621063E0
7.889210292E0,-7.776329041E-1,4.344715118E0,5.636079712E0,7.158677036E0
7.899184292E0,-7.411088562E-1,4.343367920E0,5.274880829E0,6.873023715E0
7.909158292E0,-7.265890503E-1,4.571942596E0,5.124743042E0,6.906054011E0
7.919132292E0,-7.071295166E-1,4.846172333E0,5.106630707E0,7.075527938E0
7.929106292E0,-5.995033264E-1,5.107678528E0,5.183271332E0,7.301649532E0
7.939080292E0,-6.712042236E-1,5.209317169E0,5.572761383E0,7.657882861E0
7.949054292E0,-1.157393188E0,4.674479370E0,5.948480072E0,7.653413065E0
7.959029292E0,-1.337019653E0,4.501289520E0,6.006708984E0,7.624288932E0
7.969004042E0,-1.278940430E0,4.796325989E0,6.183042297E0,7.929088451E0
7.978978042E0,-1.132245483E0,4.920717316E0,6.287674713E0,8.064136162E0
7.988952042E0,-1.152453461E0,4.748425598E0,6.197113037E0,7.891761821E0
7.998926042E0,-1.322649536E0,4.747078400E0,6.168522491E0,7.895240646E0
8.008900042E0,-1.596579895E0,4.765490112E0,6.218967590E0,7.995906532E0
8.018874042E0,-1.821711731E0,4.756059723E0,6.254443817E0,8.065779887E0
8.028849042E0,-1.813628540E0,4.817731476E0,6.342011719E0,8.168286093E0
8.038823042E0,-1.631307678E0,4.889132996E0,6.652316437E0,8.415349082E0
8.048797042E0,-1.672023010E0,5.059478760E0,7.207960968E0,8.963742945E0
8.058771042E0,-1.840273132E0,5.274581451E0,7.635322266E0,9.460758996E0
8.068745042E0,-2.019600220E0,5.387895813E0,8.080646210E0,9.919931930E0
8.078719042E0,-2.042502594E0,5.482648773E0,8.627010040E0,1.042384558E1
8.088693042E0,-1.848056946E0,5.608237610E0,9.346414032E0,1.105545561E1
8.098668042E0,-1.462159424E0,5.685776367E0,1.000654129E1,1.160158746E1
8.108642042E0,-1.129102020E0,5.676645355E0,1.070034851E1,1.216538664E1
8.118616042E0,-1.037043457E0,5.555397491E0,1.122575592E1,1.256803471E1
8.128590042E0,-1.206940155E0,5.406457214E0,1.120150635E1,1.249640863E1
8.138564042E0,-1.710493011E0,5.082680511E0,1.105286545E1,1.228516431E1
8.148538042E0,-2.404150543E0,4.361929321E0,1.117755615E1,1.223699836E1
8.158512042E0,-3.819008331E0,2.951861572E0,1.133487900E1,1.231981304E1
8.168486042E0,-4.884342957E0,2.036515045E0,1.167512146E1,1.281845001E1
8.178461042E0,-5.265300751E0,1.701661377E0,1.220666611E1,1.340230357E1
8.188435042E0,-5.539530487E0,1.350641327E0,1.288310944E1,1.408847539E1
8.198409042E0,-5.658233643E0,9.400451660E-1,1.339878708E1,1.457486837E1
8.208383042E0,-5.036726074E0,8.954379272E-1,1.364592316E1,1.457331937E1
8.218357042E0,-3.661086731E0,1.121018829E0,1.371567810E1,1.424008655E1
8.228331042E0,-2.037263489E0,1.495390320E0,1.364846786E1,1.388046504E1
8.238305042E0,-1.162482605E0,1.766326904E0,1.336450836E1,1.353075609E1
8.248280042E0,-1.242416382E0,1.268162842E0,1.313488586E1,1.325432239E1
8.258254042E0,-1.519041138E0,1.218615875E0,1.290720932E1,1.305329702E1
8.268228042E0,-2.083367615E0,1.462159424E0,1.247715363E1,1.273411534E1
8.278202042E0,-2.908152466E0,1.420246582E0,1.199859879E1,1.242742226E1
8.288176042E0,-3.512296143E0,1.483714600E0,1.134520752E1,1.196876631E1
8.298150042E0,-4.006717987E0,1.656305695E0,1.066292633E1,1.151065313E1
8.308124042E0,-4.500541077E0,1.449435883E0,9.799521790E0,1.088054969E1
8.318099042E0,-4.949607239E0,1.560804291E0,8.726403351E0,1.015307034E1
8.328073042E0,-5.142106934E0,2.103575592E0,7.920479279E0,9.674724078E0
8.338047042E0,-5.214406586E0,2.427352295E0,7.107669525E0,9.143360503E0
8.348021042E0,-5.164260864E0,2.638413391E0,6.291865997E0,8.556774698E0
8.357995042E0,-4.893473969E0,2.737058258E0,5.764063568E0,8.041268818E0
8.367969042E0,-4.527185669E0,2.739602966E0,5.559588776E0,7.675276011E0
8.377943042E0,-4.043391724E0,2.586621094E0,5.760471039E0,7.498176572E0
8.387917042E0,-3.579506378E0,2.328258362E0,6.202352142E0,7.530127822E0
8.397892042E0,-3.101250916E0,2.204166412E0,6.760691071E0,7.757773557E0
8.407866042E0,-2.518213348E0,2.118694153E0,7.326963501E0,8.032101688E0
8.417840042E0,-1.964664459E0,2.016007690E0,7.654033356E0,8.155269466E0
8.427814042E0,-1.443298645E0,1.937870178E0,7.820786591E0,8.185545474E0
8.437788042E0,-1.112336884E0,1.896107025E0,7.897726593E0,8.197963194E0
8.447762042E0,-9.337582397E-1,1.964365082E0,7.939639435E0,8.232163080E0
8.457736042E0,-9.360035706E-1,2.098186798E0,7.973768463E0,8.298160882E0
8.467711042E0,-1.084494781E0,2.199825439E0,7.935148773E0,8.305537126E0
8.477685042E0,-1.166075134E0,2.238445129E0,7.892038422E0,8.285809451E0
8.487659042E0,-1.339863739E0,2.363884277E0,8.003556519E0,8.452224598E0
8.497633042E0,-1.379381561E0,2.482886810E0,8.081095276E0,8.565717790E0
8.507607042E0,-1.513802032E0,2.467618561E0,8.009244690E0,8.516380596E0
8.517581042E0,-1.792971497E0,2.490520935E0,7.930209045E0,8.503273300E0
8.527555042E0,-1.945504303E0,2.586770782E0,7.966433716E0,8.598862496E0
8.537529042E0,-2.003583527E0,2.630030823E0,8.009544067E0,8.665114266E0
8.547504042E0,-2.050585785E0,2.737507324E0,8.051456909E0,8.747845836E0
8.557478042E0,-2.055226135E0,2.885399780E0,8.025710449E0,8.772771203E0
8.567452042E0,-2.034718781E0,3.018473053E0,8.186476135E0,8.959333212E0
8.577426042E0,-2.105222168E0,3.013084259E0,8.617579651E0,9.368741440E0
8.587400042E0,-2.219883728E0,3.012036438E0,9.012159119E0,9.758035625E0
8.597374042E0,-2.078128510E0,3.113076324E0,9.203161926E0,9.935192587E0
8.607348042E0,-1.922452240E0,3.087030487E0,9.227261810E0,9.918061321E0
8.617323042E0,-1.757794647E0,3.063229980E0,9.341025238E0,9.986389359E0
8.627297042E0,-1.652264099E0,3.132685547E0,9.550140381E0,1.018571925E1
8.637271042E0,-1.649420013E0,3.111280060E0,9.915530548E0,1.052228093E1
8.647245042E0,-1.715133362E0,3.039279785E0,1.032927017E1,1.090287698E1
8.657219042E0,-1.912722473E0,2.939138031E0,1.073522598E1,1.129345459E1
8.667193042E0,-2.284998322E0,2.879412231E0,1.117935242E1,1.176818391E1
8.677167042E0,-2.791095886E0,2.970273285E0,1.174682236E1,1.243384796E1
8.687142042E0,-3.374133453E0,3.125650177E0,1.203018311E1,1.287943210E1
8.697116042E0,-3.690126343E0,3.203188934E0,1.181508041E1,1.278567859E1
8.707090042E0,-3.785627747E0,3.367846527E0,1.174727142E1,1.279342619E1
8.717064042E0,-3.749253387E0,3.463647308E0,1.174727142E1,1.280828402E1
8.727038042E0,-3.774101715E0,3.461252289E0,1.164653091E1,1.272264884E1
8.737012042E0,-3.705394592E0,3.600163422E0,1.168634811E1,1.277739637E1
8.746986042E0,-3.587140503E0,3.763922882E0,1.172706345E1,1.282804387E1
8.756960042E0,-3.377276917E0,3.942351837E0,1.167033142E1,1.277281382E1
8.766935042E0,-3.163970490E0,4.169279938E0,1.147962799E1,1.261647587E1
8.776909042E0,-2.966531067E0,4.445006561E0,1.111648315E1,1.233428505E1
8.786883042E0,-2.847678223E0,4.551135864E0,1.085183350E1,1.210720443E1
8.796857042E0,-3.017724609E0,4.402494965E0,1.090961334E1,1.214529897E1
8.806831042E0,-3.279081116E0,4.072581024E0,1.129012207E1,1.244207159E1
8.816805042E0,-3.350183258E0,3.663930817E0,1.170954987E1,1.271855632E1
8.826779042E0,-3.345093842E0,3.176095276E0,1.215188004E1,1.299790069E1
8.836753042E0,-3.250939636E0,2.729573822E0,1.260064682E1,1.329644622E1
8.846728042E0,-3.078797607E0,2.456092529E0,1.278910492E1,1.338180070E1
8.856702042E0,-2.659968567E0,2.146236877E0,1.253253845E1,1.299023809E1
8.866676042E0,-1.998494110E0,1.988914032E0,1.175251053E1,1.208599443E1
8.876650042E0,-1.314865723E0,2.064207458E0,1.057760376E1,1.085704958E1
8.886624042E0,-6.503974915E-1,2.196382599E0,9.339228973E0,9.616044469E0
8.896598042E0,5.688171387E-3,2.446961517E0,8.280630341E0,8.634610116E0
8.906572042E0,4.029620361E-1,2.693349152E0,7.642207947E0,8.112943384E0
8.916547042E0,6.505471802E-1,2.913241882E0,7.289092255E0,7.876614488E0
8.926521042E0,8.650511169E-1,3.087479553E0,7.083419952E0,7.775325180E0
8.936495042E0,9.021739197E-1,3.198847961E0,7.124284973E0,7.861423690E0
8.946469042E0,5.255570984E-1,3.209475861E0,7.371421051E0,8.056971756E0
8.956443042E0,5.044509888E-2,3.213068390E0,7.661218414E0,8.307864995E0
8.966417042E0,-3.797602844E-1,3.203488312E0,7.808811493E0,8.448910709E0
8.976391167E0,-7.632627869E-1,3.262166290E0,7.904612274E0,8.585289406E0
8.986365167E0,-9.958790588E-1,3.192411346E0,7.861052856E0,8.542799150E0
8.996340167E0,-1.157842255E0,3.172053680E0,7.801925812E0,8.501327520E0
9.006314167E0,-1.395248566E0,3.207080841E0,7.828420715E0,8.574162173E0
9.016288167E0,-1.566492462E0,3.199297028E0,7.898175659E0,8.664327951E0
9.026262167E0,-1.694626007E0,3.197201385E0,8.012687531E0,8.791872125E0
9.036236167E0,-1.718426514E0,3.267704773E0,8.249195709E0,9.037705130E0
9.046210167E0,-1.780846710E0,3.252735901E0,8.414901123E0,9.195774397E0
9.056184167E0,-1.799258423E0,3.330124969E0,8.503067780E0,9.307482197E0
9.066159167E0,-1.796564026E0,3.474724274E0,8.638087006E0,9.482504848E0
9.076133167E0,-1.769620056E0,3.523373108E0,8.659193115E0,9.514585572E0
9.086107167E0,-1.638043671E0,3.578458557E0,8.329728241E0,9.212650285E0
9.096081167E0,-1.469643860E0,3.782783661E0,7.937394104E0,8.914680615E0
9.106055167E0,-1.310824127E0,4.082310791E0,7.514373779E0,8.651550993E0
9.116029167E0,-1.278042297E0,4.300407257E0,7.122488708E0,8.417644569E0
9.126003167E0,-1.435514832E0,4.352199554E0,7.031777344E0,8.393344769E0
9.135977167E0,-1.591041412E0,4.426295471E0,7.057972870E0,8.481655817E0
9.145952167E0,-1.766775970E0,4.449497223E0,7.283703461E0,8.716183739E0
9.155926167E0,-2.041454773E0,4.349056091E0,7.596103821E0,8.987915205E0
9.165900167E0,-2.296524353E0,4.135150909E0,7.859555969E0,9.173119272E0
9.175874167E0,-2.043101349E0,4.070186005E0,8.179590454E0,9.361964390E0
9.185848167E0,-1.714085541E0,4.062551880E0,8.272696838E0,9.374429583E0
9.195822167E0,-1.583257599E0,3.974834290E0,7.883805542E0,8.969972245E0
9.205796167E0,-1.269210663E0,4.006867676E0,7.544760590E0,8.636509517E0
9.215770167E0,-7.770341492E-1,4.148772583E0,7.209158478E0,8.353924944E0
9.225745167E0,-6.215075684E-1,4.221820679E0,6.903643799E0,8.116054411E0
9.235719167E0,-6.500981140E-1,4.200564880E0,6.881340179E0,8.088276426E0
9.245693167E0,-5.801934814E-1,4.349804535E0,6.975494385E0,8.241052474E0
9.255667167E0,-5.905220032E-1,4.295916595E0,7.074139252E0,8.297412957E0
9.265641167E0,-6.313870239E-1,4.154311066E0,7.291786652E0,8.415883945E0
9.275615167E0,-7.396119690E-1,4.290078735E0,7.657925262E0,8.808837650E0
9.285589167E0,-7.316784668E-1,4.470004578E0,7.924820251E0,9.127928041E0
9.295563167E0,-7.444020081E-1,4.546196136E0,7.884254608E0,9.131456860E0
9.305538167E0,-7.569758606E-1,4.678071899E0,7.409292297E0,8.795168077E0
9.315512167E0,-6.951544189E-1,4.875211945E0,6.852300568E0,8.438302806E0
9.325486167E0,-7.584727478E-1,5.091961212E0,6.707401886E0,8.455329086E0
9.335460167E0,-6.917115784E-1,5.435646515E0,6.881639557E0,8.796685793E0
9.345434167E0,-5.638774109E-1,5.611530762E0,7.414830780E0,9.315951413E0
9.355408167E0,-5.501060486E-1,5.468578033E0,8.422535248E0,1.005718959E1
9.365382167E0,-5.882766724E-1,5.263953552E0,9.602082367E0,1.096609603E1
9.375357167E0,-7.918533325E-1,5.234015808E0,1.106738525E1,1.226820971E1
9.385331167E0,-1.275048523E0,5.114564209E0,1.191073151E1,1.302497757E1
9.395305167E0,-1.670825500E0,5.323080597E0,1.209709396E1,1.332165633E1
9.405279167E0,-1.957180023E0,5.394931183E0,1.201177139E1,1.331234345E1
9.415253167E0,-2.345921631E0,5.288203125E0,1.186747147E1,1.320247399E1
9.425227167E0,-2.651286621E0,5.144651642E0,1.205667801E1,1.337386428E1
9.435201167E0,-2.979853363E0,4.750371552E0,1.267713776E1,1.386201203E1
9.445175167E0,-3.275338898E0,4.146676941E0,1.347872086E1,1.447752363E1
9.455150167E0,-3.529809723E0,3.711382141E0,1.401176239E1,1.491855889E1
9.465124167E0,-3.585044861E0,3.359913025E0,1.395982040E1,1.479926174E1
9.475098167E0,-3.337459717E0,3.015030212E0,1.332394272E1,1.406259201E1
9.485072167E0,-2.874622192E0,2.808310089E0,1.242461288E1,1.305837140E1
9.495046167E0,-2.426603851E0,2.715353394E0,1.144280457E1,1.200830240E1
9.505020167E0,-1.819616089E0,2.654130707E0,1.031594788E1,1.080621086E1
9.514994167E0,-1.418001251E0,2.645598450E0,9.330097961E0,9.801053345E0
9.524968167E0,-1.137634277E0,2.731968842E0,8.557404785E0,9.054669633E0
9.534943167E0,-1.036893768E0,2.897973633E0,7.954608307E0,8.529313758E0
9.544917167E0,-1.175804901E0,3.044668579E0,7.334897003E0,8.028277397E0
9.554891167E0,-1.534459076E0,3.091221771E0,6.908882904E0,7.722880271E0
9.564865167E0,-1.849853210E0,3.219954071E0,6.528224487E0,7.510511040E0
9.574839167E0,-2.094145203E0,3.318449249E0,6.096372528E0,7.250055693E0
9.584813167E0,-2.367327118E0,3.338507538E0,5.795198822E0,7.094659939E0
9.594787167E0,-2.712658997E0,3.169658661E0,5.628744965E0,7.006284660E0
9.604761167E0,-2.902613983E0,3.289110260E0,5.692212982E0,7.186424902E0
9.614736167E0,-2.850971375E0,3.479813690E0,5.876479797E0,7.400686178E0
9.624710167E0,-2.596051483E0,3.467539215E0,6.020180969E0,7.416595608E0
9.634684167E0,-2.223176880E0,3.349883881E0,6.013594666E0,7.233778975E0
9.644658167E0,-1.786684570E0,3.128045197E0,5.908662872E0,6.920202703E0
9.654632167E0,-1.361119537E0,3.050656128E0,5.903723145E0,6.783295377E0
9.664606167E0,-9.139993286E-1,3.101999359E0,5.983507233E0,6.801481721E0
9.674580167E0,-5.563929749E-1,3.165167999E0,6.073769531E0,6.871574632E0
9.684554167E0,-4.921765137E-1,3.162473602E0,6.207890625E0,6.984367045E0
9.694529167E0,-4.745132446E-1,3.232078857E0,6.234086151E0,7.038133751E0
9.704503167E0,-4.152365112E-1,3.394491119E0,6.250252533E0,7.124650731E0
9.714477167E0,-3.468287659E-1,3.481759644E0,6.327641602E0,7.230628510E0
9.724451167E0,-2.823129272E-1,3.551364899E0,6.470744019E0,7.386638030E0
9.734425167E0,-2.242337036E-1,3.672612762E0,6.564000092E0,7.524922754E0
9.744399167E0,-6.391708374E-2,3.817511444E0,6.524033203E0,7.559132771E0
9.754373167E0,2.155517578E-2,3.865411835E0,6.581363983E0,7.632576574E0
9.764348167E0,-4.400848389E-2,3.882176971E0,6.832990723E0,7.858943759E0
9.774322167E0,-2.782713318E-1,3.933071136E0,7.199428711E0,8.208425992E0
9.784296167E0,-5.189707947E-1,3.896247711E0,7.404352570E0,8.382989555E0
9.794270167E0,-6.348298645E-1,3.826642456E0,7.702382813E0,8.623972544E0
9.804244167E0,-7.285350037E-1,3.909570007E0,8.050558777E0,8.979253728E0
9.814218167E0,-7.084767151E-1,3.922592926E0,8.428822174E0,9.323825275E0
9.824192167E0,-5.785469055E-1,3.847598877E0,8.852590942E0,9.669906930E0
9.834166167E0,-4.572990417E-1,3.725901947E0,9.274713135E0,1.000558701E1
9.844141167E0,-3.441343689E-1,3.592529297E0,9.664053497E0,1.031594035E1
9.854115167E0,-2.567161560E-1,3.491639099E0,1.004905289E1,1.064147127E1
9.864089167E0,-2.510279846E-1,3.437152405E0,1.044348267E1,1.099742524E1
9.874063167E0,-2.888992310E-1,3.408561859E0,1.080093933E1,1.132969758E1
9.884037167E0,-3.661386108E-1,3.438499603E0,1.107816284E1,1.160530176E1
9.894011167E0,-3.764671326E-1,3.467688904E0,1.116887421E1,1.170086941E1
9.903985167E0,-3.514691162E-1,3.483106842E0,1.120420074E1,1.173838482E1
9.913959167E0,-3.128494263E-1,3.529360657E0,1.111229187E1,1.166350256E1
9.923934167E0,-2.168989563E-1,3.663481750E0,1.084000809E1,1.144438373E1
9.933908167E0,-8.472381592E-2,3.823199615E0,1.054257660E1,1.121472045E1
9.943882167E0,-1.901046753E-2,4.020040283E0,1.028017227E1,1.103825291E1
9.953856167E0,-5.254074097E-2,4.143533478E0,1.011835876E1,1.093402096E1
9.963830167E0,-1.546284485E-1,4.262236633E0,1.016191818E1,1.102066932E1
9.973803417E0,-3.516188049E-1,4.289330292E0,1.032567764E1,1.118667104E1
9.983777417E0,-6.221063232E-1,4.302652588E0,1.050171158E1,1.136599233E1
9.993751417E0,-7.891589355E-1,4.349804535E0,1.077010345E1,1.164210890E1
1.000372642E1,-7.432044983E-1,4.452191620E0,1.088566315E1,1.178439754E1
1.001370042E1,-7.065307617E-1,4.580025787E0,1.078058167E1,1.173442640E1
1.002367442E1,-4.546046448E-1,4.660408630E0,1.071067703E1,1.168951139E1
1.003364842E1,-1.187031555E-1,4.601580963E0,1.073193283E1,1.167745777E1
1.004362242E1,8.113128662E-2,4.320315857E0,1.083267334E1,1.166269793E1
1.005359642E1,6.565347290E-1,4.323908386E0,1.105346420E1,1.188723233E1
1.006357042E1,1.165925446E0,4.098177795E0,1.139206009E1,1.216279065E1
1.007354442E1,1.337319031E0,3.282074890E0,1.188782913E1,1.240487482E1
1.008351942E1,1.382075958E0,2.508333893E0,1.250918701E1,1.283283416E1
1.009349342E1,1.250798950E0,1.923500061E0,1.322170532E1,1.341930856E1
1.010346742E1,1.088237000E0,1.417103119E0,1.372660538E1,1.384240356E1
1.011344142E1,8.571176147E-1,1.139131165E0,1.371537872E1,1.378926698E1
1.012341542E1,6.604266357E-1,1.178499298E0,1.244392273E1,1.251703786E1
1.013338942E1,4.499642944E-1,1.125659180E0,1.092892319E1,1.099595100E1
1.014336342E1,4.677772522E-1,1.099613342E0,1.000534378E1,1.007645122E1
1.015333742E1,8.131091309E-1,1.372795258E0,9.305698700E0,9.441490432E0
1.016331242E1,1.686093750E0,1.969753876E0,8.831634521E0,9.204379978E0
1.017328642E1,2.288890228E0,2.506537628E0,7.375612335E0,8.119199879E0
1.018326042E1,2.379900970E0,2.541564789E0,6.595883789E0,7.458496039E0
1.019323442E1,2.712658997E0,2.530787201E0,6.577921143E0,7.551983133E0
1.020320842E1,2.937641144E0,2.569706268E0,6.643035736E0,7.704742019E0
1.021430692E1,1.307081909E0,4.403093719E0,7.766449585E0,9.022939464E0
1.022428092E1,2.014810181E0,4.739743652E0,7.527247009E0,9.120530549E0
1.023425492E1,2.010768585E0,4.867727509E0,7.226372681E0,8.941947412E0
1.024422892E1,1.592837677E0,4.937332764E0,7.596552887E0,9.199021820E0
1.025420292E1,1.602268066E0,5.168003082E0,7.877368927E0,9.556592490E0
1.026417692E1,1.755848694E0,5.526806946E0,8.068371735E0,9.936157311E0
1.027415092E1,1.541344757E0,5.823489990E0,8.089477844E0,1.008605131E1
1.028412492E1,1.314865723E0,5.732479248E0,7.982450409E0,9.915125049E0
1.029409892E1,1.218466187E0,5.454058228E0,7.837252350E0,9.625691424E0
1.030407292E1,1.220711517E0,5.246290283E0,7.841892700E0,9.513620734E0
1.031404692E1,1.165027313E0,5.324577484E0,7.732919312E0,9.460785121E0
1.032402092E1,1.185534668E0,5.455106049E0,7.645351410E0,9.466523788E0
1.033399492E1,1.205592957E0,5.539979553E0,7.559130707E0,9.449089103E0
1.034396892E1,1.208137665E0,5.525759125E0,7.417824554E0,9.328329520E0
1.035394292E1,1.433718567E0,5.608686676E0,7.551945648E0,9.515503047E0
1.036391692E1,1.372346191E0,5.782924347E0,7.702981567E0,9.729412783E0
1.037389092E1,1.300794983E0,5.780379639E0,7.582182770E0,9.622595903E0
1.038386492E1,1.403331757E0,5.642216949E0,7.638914795E0,9.599842257E0
1.039383892E1,1.345102844E0,5.537584534E0,7.768545227E0,9.634544051E0
1.040381292E1,1.600471802E0,5.576653290E0,7.884254608E0,9.788873410E0
1.041378692E1,1.608405304E0,5.874084778E0,8.076005859E0,1.011502399E1
1.042376092E1,1.353335724E0,6.060746613E0,8.002957764E0,1.012973346E1
1.043373492E1,1.113833771E0,6.053112488E0,8.066874847E0,1.014668745E1
1.044370892E1,1.178199921E0,5.929020538E0,8.457412720E0,1.039563704E1
1.045368292E1,1.257834320E0,5.859714661E0,8.920100555E0,1.074646905E1
1.046365692E1,1.323098602E0,5.862109680E0,8.990304565E0,1.081390290E1
1.047363092E1,1.338815918E0,5.768404541E0,8.859326935E0,1.065619973E1
1.048360492E1,1.195264435E0,5.673801270E0,8.731792145E0,1.048164453E1
1.049357892E1,1.191821594E0,5.610482941E0,8.722960510E0,1.043973168E1
1.050355292E1,1.389560394E0,5.747298431E0,8.858877869E0,1.065091707E1
1.051352692E1,1.465153198E0,5.851332092E0,9.068891144E0,1.089171923E1
1.052350092E1,1.055305481E0,5.658832397E0,8.867260437E0,1.057186651E1
1.053347492E1,9.467811584E-1,5.384602661E0,8.582103424E0,1.017560021E1
1.054344892E1,1.162033539E0,5.401966553E0,8.705446930E0,1.031098302E1
1.055342292E1,1.323547668E0,5.549409943E0,8.716224518E0,1.041730766E1
1.056339592E1,1.372046814E0,5.616320801E0,8.749754791E0,1.048731523E1
1.057336992E1,1.426982574E0,5.461392975E0,8.803642731E0,1.045787827E1
1.058334392E1,1.360670471E0,5.125790863E0,8.870104523E0,1.033459774E1
1.059331792E1,1.031504974E0,5.062622223E0,8.851543121E0,1.024909566E1
1.060329192E1,1.106049957E0,5.147046661E0,9.046437836E0,1.046677951E1
1.061326592E1,1.438957672E0,5.361400909E0,9.212442627E0,1.075566446E1
1.062323992E1,1.598076782E0,5.523064728E0,9.158554688E0,1.081375131E1
1.063321392E1,1.529070282E0,5.511538696E0,8.863218842E0,1.054854317E1
1.064318792E1,1.505419464E0,5.272186432E0,8.659791870E0,1.024959671E1
1.065316192E1,1.680854645E0,4.781207428E0,8.751850433E0,1.011336259E1
1.066313592E1,1.952090607E0,4.231700134E0,9.366771698E0,1.046204358E1
1.067310992E1,2.166444855E0,3.828289032E0,1.028780640E1,1.118875510E1
1.068308392E1,2.220183105E0,3.521726532E0,1.110166397E1,1.185658946E1
1.069305792E1,2.077080688E0,3.268153839E0,1.177286819E1,1.239336594E1
1.070303192E1,1.864522705E0,3.114124146E0,1.217014206E1,1.269986503E1
1.071300592E1,1.669178925E0,2.984344025E0,1.218286560E1,1.265364302E1
1.072297992E1,1.426683197E0,2.887645111E0,1.190788742E1,1.233578948E1
1.073295392E1,1.369053040E0,2.919977875E0,1.119896164E1,1.165406877E1
1.074292792E1,1.555265808E0,2.974314880E0,1.002704865E1,1.057388790E1
1.075290192E1,1.610950012E0,3.050656128E0,9.069340210E0,9.703329047E0
1.076287592E1,1.492546234E0,3.083737335E0,8.357121277E0,9.032087591E0
1.077284992E1,1.476679230E0,2.998714142E0,7.916287994E0,8.593048566E0
1.078282392E1,1.482367401E0,2.991978149E0,7.873776398E0,8.552526008E0
1.079279792E1,1.499431915E0,3.080743561E0,7.988737335E0,8.692479575E0
1.080277192E1,1.666334839E0,3.172502747E0,7.779472504E0,8.565140857E0
1.081274592E1,1.526525574E0,3.316054230E0,7.340884552E0,8.198480468E0
1.082271992E1,1.683698730E0,3.412902832E0,7.282356262E0,8.216779167E0
1.083269392E1,2.100581818E0,3.417543182E0,7.542215881E0,8.542661516E0
1.084266792E1,2.344574432E0,3.302432556E0,7.961194611E0,8.932172730E0
1.085264192E1,2.436333618E0,3.155438232E0,8.343948669E0,9.247377538E0
1.086261592E1,2.297572174E0,3.047961731E0,8.655001831E0,9.459279323E0
1.087258992E1,2.029180298E0,2.959346008E0,9.063202972E0,9.747663802E0
1.088256392E1,1.839524689E0,2.936892700E0,9.514963531E0,1.012638735E1
1.089253792E1,1.665137329E0,2.932851105E0,9.943821716E0,1.050018515E1
1.090251192E1,1.531914368E0,2.987038422E0,1.022299118E1,1.076005153E1
1.091248592E1,1.250349884E0,3.140469360E0,1.015802628E1,1.070567235E1
1.092246071E1,9.237290955E-1,3.262166290E0,9.473799133E0,1.006220027E1
1.093243471E1,7.816744995E-1,3.283122711E0,8.596473541E0,9.235218844E0
1.094240871E1,7.894583130E-1,3.325334930E0,7.953859863E0,8.657077079E0
1.095238271E1,8.743318176E-1,3.416495361E0,7.511230316E0,8.297920073E0
1.096235671E1,1.005010071E0,3.503015442E0,7.175777893E0,8.048164437E0
1.097233071E1,1.022823029E0,3.606749725E0,6.938371582E0,7.886432066E0
1.098230471E1,1.034349060E0,3.726949768E0,6.896758118E0,7.907294423E0
1.099227871E1,1.111289062E0,3.812422028E0,6.955885162E0,8.009610695E0
1.100225271E1,1.219963074E0,3.889661407E0,7.202272797E0,8.275899299E0
1.101222671E1,1.183289337E0,3.914958801E0,7.386539612E0,8.443224710E0
1.102220071E1,9.621990967E-1,3.917204132E0,7.382348328E0,8.412453991E0
1.103217471E1,7.583230591E-1,3.911366272E0,7.403604126E0,8.407567664E0
1.104214771E1,7.677534485E-1,3.919748840E0,7.667355652E0,8.645358236E0
1.105212171E1,9.044192505E-1,3.950285339E0,8.120463409E0,9.075497475E0
1.106209571E1,8.958869934E-1,4.054468689E0,8.360713806E0,9.335034290E0
1.107206971E1,7.985893250E-1,4.126468964E0,8.317902832E0,9.319495616E0
1.108204371E1,7.066804504E-1,4.096830597E0,8.159681854E0,9.157719485E0
1.109201771E1,6.716532898E-1,4.043242035E0,8.171507263E0,9.141797156E0
1.110199171E1,6.777905273E-1,4.051923981E0,8.242459717E0,9.209540169E0
1.111196571E1,6.158193970E-1,4.041595459E0,8.239765320E0,9.198231347E0
1.112193971E1,6.162684631E-1,3.963308258E0,8.274792480E0,9.195639715E0
1.113191371E1,5.659730530E-1,3.892655182E0,8.282576294E0,9.169196253E0
1.114188771E1,4.733157349E-1,3.891457672E0,8.432414703E0,9.299090726E0
1.115186171E1,4.215234375E-1,3.980522461E0,8.819060669E0,9.684940483E0
1.116183571E1,3.324586487E-1,4.111799469E0,9.072483673E0,9.966312439E0
1.117180971E1,2.799179077E-1,4.115092621E0,9.204209747E0,1.008612009E1
1.118178371E1,1.808239746E-1,4.057911530E0,9.468709717E0,1.030319402E1
1.119175771E1,7.888595581E-2,4.031865692E0,9.732760620E0,1.053512189E1
1.120173171E1,3.891906738E-3,3.985911255E0,9.957593079E0,1.072572439E1
1.121170571E1,-1.061293030E-1,3.920646973E0,1.012135254E1,1.085470006E1
1.122167971E1,-2.234852600E-1,3.988605652E0,1.018616776E1,1.094152340E1
1.123165371E1,-3.064128113E-1,4.271068268E0,1.006985962E1,1.094248535E1
1.124162771E1,-4.583468628E-1,4.741839294E0,9.638456726E0,1.075151012E1
1.125160171E1,-4.129911804E-1,5.038971405E0,9.181906128E0,1.048185073E1
1.126157571E1,-3.086581421E-1,4.954097900E0,8.951834564E0,1.023590240E1
1.127154971E1,-2.157014465E-1,4.610113220E0,9.054970093E0,1.016327479E1
1.128152371E1,4.879852295E-2,3.904779968E0,9.668244781E0,1.042711106E1
1.129149771E1,1.095721436E-1,3.204087067E0,1.085392914E1,1.131750669E1
1.130147171E1,8.696914673E-2,3.074007568E0,1.226160187E1,1.264135936E1
1.131144571E1,-1.267863464E-1,3.097209320E0,1.387434814E1,1.421641012E1
1.132141971E1,-4.546046448E-1,2.957699432E0,1.474853027E1,1.504904637E1
1.133139371E1,-8.240364075E-1,2.750979309E0,1.461710358E1,1.489653114E1
1.134136771E1,-9.907896423E-1,2.517913971E0,1.375474686E1,1.401836709E1
1.135134171E1,-1.078058167E0,2.202819214E0,1.269465134E1,1.292937719E1
1.136131571E1,-1.259630585E0,1.952240295E0,1.162198196E1,1.185193554E1
1.137128971E1,-1.422791290E0,1.770817566E0,1.065529221E1,1.089474102E1
1.138126371E1,-1.458866272E0,1.588646393E0,9.874216461E0,1.010703908E1
1.139123771E1,-1.272503815E0,1.525178375E0,8.994645538E0,9.211356219E0
1.140121171E1,-1.021924896E0,1.869163055E0,8.172555084E0,8.445635419E0
1.141118571E1,-9.761201477E-1,2.370021515E0,7.774682465E0,8.186299527E0
1.142115971E1,-1.161135406E0,2.663112030E0,7.407945099E0,7.957264084E0
1.143113371E1,-1.501527557E0,2.673290863E0,7.207212524E0,7.832303711E0
1.144110771E1,-1.883084106E0,2.556383972E0,7.333998871E0,7.991786046E0
1.145108171E1,-2.014660492E0,2.443518677E0,7.536228333E0,8.174617906E0
1.146105471E1,-2.054627380E0,2.351609802E0,7.783214722E0,8.386297976E0
1.147102871E1,-2.201771393E0,2.348017273E0,8.064330139E0,8.682995046E0
1.148100271E1,-2.278711395E0,2.495011597E0,8.271499329E0,8.935060696E0
1.149097671E1,-2.328408051E0,2.662363586E0,8.338559875E0,9.057662210E0
1.150095071E1,-2.271526337E0,2.551294556E0,8.362959137E0,9.033715810E0
1.151092471E1,-2.182910614E0,2.296674042E0,8.746162262E0,9.302427894E0
1.152089871E1,-2.021995239E0,2.023492126E0,9.470356293E0,9.892958781E0
1.153087271E1,-1.700763245E0,1.846410370E0,1.003558090E1,1.034479149E1
1.154084671E1,-1.410965881E0,1.850451965E0,1.051159103E1,1.076608300E1
1.155082071E1,-1.173858948E0,1.971250763E0,1.067295547E1,1.091676477E1
1.156079471E1,-1.171463928E0,2.062860260E0,1.046668442E1,1.073215742E1
1.157076871E1,-1.159189453E0,2.094145203E0,1.030487091E1,1.057920265E1
1.158074271E1,-1.038540344E0,2.075733490E0,1.027178970E1,1.053075967E1
1.159071671E1,-9.951306152E-1,2.191742249E0,1.020083725E1,1.048098753E1
1.160069071E1,-8.881031799E-1,2.354603577E0,9.829908600E0,1.014692014E1
1.161066471E1,-7.129673767E-1,2.462229767E0,9.309291229E0,9.655765174E0
1.162063871E1,-6.908134460E-1,2.595602417E0,8.793463898E0,9.194530028E0
1.163061271E1,-8.361611938E-1,2.694696350E0,8.317154388E0,8.782688147E0
1.164058671E1,-1.002914429E0,2.573149109E0,7.961493988E0,8.426880811E0
1.165056071E1,-1.244362335E0,2.508184204E0,7.641010437E0,8.137841613E0
1.166053471E1,-1.257235565E0,2.491419067E0,7.560627594E0,8.059212111E0
1.167050871E1,-1.109792175E0,2.646346893E0,7.423662415E0,7.958992034E0
1.168048271E1,-1.092727661E0,2.835403748E0,7.161707153E0,7.779692636E0
1.169045671E1,-1.069825287E0,2.898422699E0,6.998696136E0,7.650302471E0
1.170043071E1,-1.068328400E0,2.961890717E0,7.125033417E0,7.789751175E0
1.171040471E1,-9.979747009E-1,3.040926361E0,7.332651672E0,8.000685420E0
1.172037871E1,-8.135581970E-1,3.225342865E0,7.537276154E0,8.238643417E0
1.173035271E1,-7.641609192E-1,3.355721741E0,7.793243866E0,8.519357973E0
1.174032671E1,-7.083270264E-1,3.427422638E0,7.937693481E0,8.675017632E0
1.175030071E1,-6.286926270E-1,3.532504120E0,8.036488037E0,8.801078329E0
1.176027471E1,-5.836363220E-1,3.551963654E0,8.058043213E0,8.825482286E0
1.177024871E1,-6.062393188E-1,3.467239838E0,8.193062439E0,8.917149227E0
1.178022271E1,-6.219566345E-1,3.379821625E0,8.380472717E0,9.057723071E0
1.179019671E1,-6.342311096E-1,3.456611938E0,8.689430237E0,9.373185853E0
1.180017071E1,-5.248086548E-1,3.491938477E0,8.911568298E0,9.585672015E0
1.181014471E1,-5.719606018E-1,3.511098633E0,9.178762665E0,9.844015268E0
1.182011871E1,-5.418731689E-1,3.596720581E0,9.377998352E0,1.005867181E1
1.183009271E1,-5.038522339E-1,3.690874786E0,9.269324341E0,9.989834708E0
1.184006671E1,-5.264552307E-1,3.765120392E0,9.128616943E0,9.888626496E0
1.185003971E1,-4.767585754E-1,3.860172729E0,9.062604218E0,9.861999161E0
1.186001371E1,-3.165916443E-1,3.918850708E0,8.986712036E0,9.809108744E0
1.186998771E1,-3.463796997E-1,4.046535187E0,8.992998962E0,9.867545604E0
1.187996171E1,-3.526666260E-1,4.213587799E0,8.929530945E0,9.880041436E0
1.188993571E1,-3.150947571E-1,4.294719086E0,8.784632263E0,9.783335869E0
1.189990971E1,-1.785786438E-1,4.259691925E0,8.753047943E0,9.736154987E0
1.190988371E1,-2.270777893E-1,4.179608459E0,8.797505493E0,9.742525037E0
1.191985771E1,-2.221380615E-1,4.177213440E0,8.840166779E0,9.779928738E0
1.192983171E1,-3.577560425E-2,4.249064026E0,8.855285339E0,9.822011170E0
1.193980571E1,-5.119354248E-2,4.288881226E0,8.945547638E0,9.920682713E0
1.194977971E1,-2.842588806E-1,4.234095154E0,9.120982819E0,1.005985549E1
1.195975371E1,-3.243754578E-1,4.138893127E0,9.057963867E0,9.964053652E0
1.196972771E1,-2.799179077E-1,4.128414917E0,9.007369080E0,9.912359028E0
1.197970171E1,-2.016307068E-1,4.235442352E0,9.053473206E0,9.997249819E0
1.198967571E1,-1.743873596E-1,4.372257843E0,9.039103088E0,1.004253127E1
1.199964971E1,-1.137634277E-1,4.451592865E0,9.057215424E0,1.009270887E1
1.200962371E1,-1.017883301E-2,4.399351501E0,9.138197021E0,1.014204329E1
1.201959771E1,5.822891235E-2,4.180356903E0,9.408385162E0,1.029545948E1
1.202957171E1,9.145980835E-2,3.934418335E0,9.743837585E0,1.050858618E1
1.203954571E1,6.885681152E-2,3.930676117E0,9.953102417E0,1.070136457E1
1.204951971E1,2.255809021E-1,4.109404449E0,9.962532806E0,1.077915357E1
1.205949371E1,4.537065125E-1,4.238136749E0,9.982441406E0,1.085434425E1
1.206946771E1,5.869294739E-1,4.165388031E0,1.006342300E1,1.090721900E1
1.207944171E1,6.313870239E-1,3.998185730E0,1.010324020E1,1.088391480E1
1.208941571E1,6.616241455E-1,3.991898804E0,1.014664993E1,1.092371308E1
1.209938971E1,8.195457458E-1,4.134552155E0,1.021969803E1,1.105479102E1
1.210936371E1,9.134005737E-1,4.325405273E0,1.008512787E1,1.101150469E1
1.211933771E1,9.077124023E-1,4.315675507E0,9.829758911E0,1.077372531E1
1.212931171E1,9.083111572E-1,3.981570282E0,9.803563385E0,1.062015942E1
1.213928571E1,8.366102600E-1,3.422782288E0,9.835896149E0,1.044797628E1
1.214925971E1,7.774832153E-1,2.809507599E0,1.022388931E1,1.063135578E1
1.215923371E1,7.720944214E-1,2.229912872E0,1.111124405E1,1.135906623E1
1.216920771E1,8.225395203E-1,1.853445740E0,1.204036194E1,1.220992006E1
1.217918171E1,7.888595581E-1,1.692829742E0,1.258507919E1,1.272290023E1
1.218915571E1,6.328839111E-1,1.574875031E0,1.279778687E1,1.290984593E1
1.219912971E1,6.813830566E-1,1.674268341E0,1.226848755E1,1.240093723E1
1.220910371E1,8.345146179E-1,1.906435547E0,1.119581818E1,1.138759219E1
1.221907771E1,8.062234497E-1,2.108365631E0,1.006042923E1,1.031054985E1
1.222905071E1,7.683522034E-1,2.190844116E0,8.901539154E0,9.199324017E0
1.223902471E1,8.617579651E-1,2.192041626E0,8.125403137E0,8.459896537E0
1.224899871E1,1.024918671E0,2.320923615E0,7.892038422E0,8.289838066E0
1.225897271E1,1.231489105E0,2.634970551E0,7.785609741E0,8.311158419E0
1.226894671E1,1.437011719E0,2.884950714E0,7.750582581E0,8.394014155E0
1.227892071E1,1.596879272E0,2.931803284E0,7.861202545E0,8.540725927E0
1.228889471E1,1.665736084E0,2.852917328E0,8.009244690E0,8.663822164E0
1.229886871E1,1.732946320E0,2.625091095E0,8.280780029E0,8.858076772E0
1.230884271E1,1.716630249E0,2.417772217E0,8.647068329E0,9.141347416E0
1.231881671E1,1.743574219E0,2.349214783E0,8.972341919E0,9.437254933E0
1.232879071E1,1.731599121E0,2.348915405E0,9.470805359E0,9.910196428E0
1.233876471E1,1.602417755E0,2.290087738E0,1.011955627E1,1.049846006E1
1.234873871E1,1.550924835E0,2.210004272E0,1.062954575E1,1.096707479E1
1.235871271E1,1.424437866E0,2.367327118E0,1.115749786E1,1.149447778E1
1.236868671E1,1.458866272E0,2.594404907E0,1.084404968E1,1.124511632E1
1.237866071E1,1.361867981E0,2.668351135E0,1.028391449E1,1.071138084E1
1.238863471E1,9.854008484E-1,2.633473663E0,9.597891083E0,1.000128550E1
1.239860871E1,7.414082336E-1,2.699336700E0,8.750952301E0,9.187778348E0
1.240858271E1,5.313949585E-1,2.864143982E0,8.019423523E0,8.532107301E0
1.241855671E1,2.887495422E-1,3.062032471E0,7.451055450E0,8.060871322E0
1.242853071E1,3.167413330E-1,3.247646484E0,7.013665009E0,7.735569120E0
1.243850471E1,3.673361206E-1,3.325783997E0,6.761289825E0,7.543925710E0
1.244847871E1,3.180885315E-1,3.367846527E0,6.769672394E0,7.567828940E0
1.245845271E1,3.140469360E-1,3.542832642E0,6.898704071E0,7.761598190E0
1.246842671E1,3.212319946E-1,3.714525604E0,7.006330261E0,7.936595882E0
1.247840071E1,2.164498901E-1,3.673959961E0,7.132966919E0,8.026459333E0
1.248837471E1,1.604663086E-1,3.585493927E0,7.246131592E0,8.086280924E0
1.249834871E1,1.336720276E-1,3.557801514E0,7.469916229E0,8.274990531E0
1.250832271E1,1.498384094E-1,3.576213226E0,7.708969116E0,8.499409240E0
1.251829671E1,1.477427673E-1,3.597918091E0,7.813751221E0,8.603577782E0
1.252827071E1,9.909393311E-2,3.601959686E0,7.897576904E0,8.680763454E0
1.253824471E1,1.692979431E-1,3.603606262E0,8.034991150E0,8.807708139E0
1.254821871E1,2.938389587E-1,3.710334320E0,8.220305786E0,9.023654987E0
1.255819271E1,2.104623413E-1,3.891757050E0,8.158783722E0,9.041892454E0
1.256816671E1,1.178050232E-1,3.986060944E0,7.925269318E0,8.872003924E0
1.257814071E1,1.905537415E-1,3.965703278E0,7.856262817E0,8.802498433E0
1.258811471E1,2.339634705E-1,3.950285339E0,8.016429749E0,8.939946257E0
1.259808871E1,2.535726929E-1,4.010759583E0,8.267158356E0,9.192192275E0
1.260806271E1,2.682421875E-1,4.108805695E0,8.445886688E0,9.396128993E0
1.261803571E1,2.409988403E-1,4.142186279E0,8.503367157E0,9.461661620E0
1.262800971E1,1.302291870E-1,4.155358887E0,8.619824982E0,9.570023502E0
1.263798371E1,8.053253174E-2,4.173920288E0,8.805438995E0,9.744939813E0
1.264795771E1,4.311035156E-2,4.177961884E0,8.982670441E0,9.906845726E0
1.265793171E1,-2.245330811E-2,4.159250793E0,9.152118073E0,1.005291682E1
1.266790571E1,-9.565109253E-2,4.127217407E0,9.316775665E0,1.019045541E1
1.267787971E1,-1.172062683E-1,4.092190247E0,9.497000885E0,1.034179792E1
1.268785371E1,-4.071533203E-2,4.110751648E0,9.598789215E0,1.044206355E1
1.269782771E1,1.736389160E-2,4.134103088E0,9.750573578E0,1.059078821E1
1.270780171E1,1.478924561E-1,4.177662506E0,9.864786072E0,1.071395074E1
1.271777571E1,2.704875183E-1,4.233945465E0,1.008617569E1,1.094213863E1
1.272774971E1,3.260220337E-1,4.411625977E0,1.028166916E1,1.119291985E1
1.273772371E1,2.412982178E-1,4.625680847E0,1.042522064E1,1.140790838E1
1.274769771E1,9.744735718E-2,4.668192444E0,1.064241898E1,1.162164353E1
1.275767171E1,3.083587646E-2,4.391717377E0,1.104029160E1,1.188175790E1
1.276764571E1,-1.022373962E-1,3.854783936E0,1.166958298E1,1.229019847E1
1.277761971E1,-3.755690002E-1,3.247347107E0,1.246502884E1,1.288655343E1
1.278759371E1,-6.993457031E-1,2.815495148E0,1.351419708E1,1.382207004E1
1.279756771E1,-9.017248535E-1,2.489922180E0,1.436113586E1,1.460325455E1
1.280754171E1,-1.002914429E0,2.245630188E0,1.482352432E1,1.502616270E1
1.281751571E1,-1.362317047E0,2.043400726E0,1.485211487E1,1.505379388E1
1.282748971E1,-1.838925934E0,1.975891113E0,1.418210815E1,1.443668889E1
1.283746371E1,-1.900447998E0,1.786834259E0,1.299432816E1,1.325356720E1
1.284743771E1,-2.004481659E0,1.568737793E0,1.160057648E1,1.187654241E1
1.285741171E1,-2.147284698E0,1.440155182E0,1.040860519E1,1.072492147E1
1.286738571E1,-2.210603027E0,1.296903076E0,9.353449402E0,9.698233811E0
1.287735971E1,-2.242935791E0,1.313219147E0,8.193810883E0,8.596152760E0
1.288733371E1,-2.055675201E0,1.795815582E0,7.110663300E0,7.616579724E0
1.289730771E1,-1.821112976E0,2.208058319E0,6.541097717E0,7.139883288E0
1.290728171E1,-1.702559509E0,2.381098480E0,6.220015411E0,6.874367649E0
1.291725571E1,-1.696422272E0,2.346520386E0,6.212680664E0,6.854298467E0
1.292722942E1,-1.868564301E0,2.145787811E0,6.602170715E0,7.189199958E0
1.293720342E1,-2.155517578E0,2.060764618E0,7.178621979E0,7.773391818E0
1.294717742E1,-2.236798553E0,2.165846100E0,7.782316589E0,8.382040837E0
1.295715142E1,-2.315085754E0,2.283651123E0,8.331524506E0,8.943656137E0
1.296712542E1,-2.313439178E0,2.225272522E0,8.899144135E0,9.460370234E0
1.297709942E1,-2.087409210E0,1.931882629E0,9.502389679E0,9.918914120E0
1.298707342E1,-1.840722198E0,1.569037170E0,1.015158966E1,1.043575146E1
1.299704742E1,-1.737137604E0,1.388961639E0,1.070992859E1,1.093843827E1
1.300702042E1,-1.662143555E0,1.474733276E0,1.083117645E1,1.105676005E1
1.301699442E1,-1.468446350E0,1.575473785E0,1.074929672E1,1.096292992E1
1.302696842E1,-1.278790741E0,1.616488495E0,1.054901321E1,1.074848922E1
1.303694242E1,-1.108295288E0,1.771865387E0,1.016131943E1,1.037401744E1
1.304691642E1,-9.732760620E-1,2.020498352E0,9.602830811E0,9.861239246E0
1.305689042E1,-8.409512329E-1,2.178270264E0,8.963659973E0,9.262789020E0
1.306686442E1,-6.722520447E-1,2.349065094E0,8.554111633E0,8.896227035E0
1.307683842E1,-3.701802063E-1,2.498304749E0,7.984845428E0,8.374742773E0
1.308681242E1,-1.583706665E-1,2.618205414E0,7.213050385E0,7.675166233E0
1.309678642E1,-2.722837830E-1,2.715203705E0,6.950795746E0,7.467263965E0
1.310676042E1,-3.444337463E-1,2.814447327E0,6.949598236E0,7.505775377E0
1.311673442E1,-3.390449524E-1,2.901715851E0,6.861880646E0,7.457902678E0
1.312670842E1,-2.896476746E-1,2.986589355E0,6.834786987E0,7.464444046E0
1.313668242E1,-1.627116394E-1,3.012335815E0,6.905739441E0,7.535906008E0
1.314665642E1,-1.591191101E-1,2.965183868E0,7.032076721E0,7.633330680E0
1.315663042E1,-1.784289551E-1,2.937790833E0,7.244784393E0,7.819805162E0
1.316660442E1,-1.460961914E-1,3.007246399E0,7.445666656E0,8.031365199E0
1.317657842E1,-7.409591675E-2,3.117417297E0,7.685018921E0,8.293569595E0
1.318655242E1,-1.556762695E-2,3.242706757E0,7.922425232E0,8.560386149E0
1.319652642E1,4.909790039E-2,3.341950378E0,8.096812592E0,8.759532926E0
1.320650042E1,6.990463257E-2,3.426524506E0,8.219856720E0,8.905728569E0
1.321647442E1,5.029541016E-2,3.454815674E0,8.274343414E0,8.966774220E0
1.322644842E1,6.735992432E-3,3.495081940E0,8.322692871E0,9.026785683E0
1.323642242E1,4.805007935E-2,3.588487701E0,8.349337463E0,9.087958455E0
1.324639642E1,1.191522217E-1,3.728147278E0,8.526568909E0,9.306753286E0
1.325637042E1,1.892065430E-1,3.854634247E0,8.723559265E0,9.539103236E0
1.326634442E1,2.411485291E-1,3.996239777E0,8.835227051E0,9.699965052E0
1.327631842E1,2.944377136E-1,4.021088104E0,8.935967560E0,9.803436099E0
1.328629242E1,3.989204407E-1,3.869603119E0,9.119485931E0,9.914534254E0
1.329626642E1,2.761756897E-1,3.820355530E0,9.209299164E0,9.974095471E0
1.330624042E1,2.835104370E-1,3.851041718E0,9.320817261E0,1.008903042E1
1.331621442E1,2.495310974E-1,3.940405884E0,9.466015320E0,1.025643751E1
1.332618842E1,1.136137390E-1,4.021986237E0,9.626331940E0,1.043338622E1
1.333616242E1,5.748046875E-2,4.089795227E0,9.858499146E0,1.067331881E1
1.334613642E1,1.197509766E-1,4.245621185E0,9.895023193E0,1.076806034E1
1.335611042E1,2.095642090E-1,4.359683990E0,9.901609497E0,1.082093491E1
1.336608442E1,2.552192688E-1,4.355792084E0,9.968370667E0,1.088147395E1
1.337605842E1,3.417393494E-1,4.308640137E0,1.006282425E1,1.095178513E1
1.338603242E1,5.589376831E-1,4.257446594E0,1.025652145E1,1.111910496E1
1.339600642E1,8.321195984E-1,4.162244568E0,1.041264679E1,1.124455050E1
1.340597942E1,9.928852844E-1,4.069287872E0,1.052551208E1,1.132834187E1
1.341595342E1,8.738827515E-1,3.970343628E0,1.063867676E1,1.138897461E1
1.342592742E1,6.459068298E-1,4.013603668E0,1.039827667E1,1.116469291E1
1.343590142E1,5.255570984E-1,4.139192505E0,1.019993912E1,1.102033951E1
1.344587542E1,3.576063538E-1,4.255201263E0,1.005234604E1,1.092173434E1
1.345584942E1,3.150947571E-1,4.558919678E0,9.999655609E0,1.099436881E1
1.346582342E1,3.664379883E-1,4.786596222E0,1.034184402E1,1.140173311E1
1.347579742E1,6.837780762E-1,4.806055756E0,1.091649902E1,1.194720366E1
1.348577142E1,1.566342773E0,4.681963806E0,1.161344971E1,1.261928797E1
1.349574542E1,2.292931824E0,4.327949982E0,1.230875381E1,1.324741891E1
1.350571942E1,2.807561646E0,3.931723938E0,1.278775772E1,1.366995256E1
1.351569342E1,3.202440491E0,3.591930542E0,1.296334259E1,1.382772003E1
1.352566742E1,3.111429749E0,3.268902283E0,1.290047333E1,1.366707464E1
1.353564142E1,3.006497955E0,2.705773315E0,1.281949173E1,1.344245541E1
1.354561542E1,2.958896942E0,2.189796295E0,1.274853928E1,1.326934560E1
1.355558942E1,2.568508759E0,1.856888580E0,1.168589905E1,1.210807619E1
1.356556342E1,1.905836792E0,1.684297485E0,1.026235931E1,1.057284685E1
1.357553742E1,1.273401947E0,1.756896515E0,8.966504059E0,9.225314787E0
1.358551142E1,1.273401947E0,2.170935516E0,7.677235107E0,8.079260636E0
1.359548542E1,1.694326630E0,2.784210205E0,6.861431580E0,7.596170911E0
1.360545942E1,1.930685120E0,2.926115112E0,6.684499512E0,7.547994992E0
1.361543342E1,1.911674652E0,2.792742462E0,6.617588654E0,7.432791536E0
1.362540742E1,1.777852936E0,2.665507050E0,6.828649750E0,7.542953420E0
1.363538142E1,1.754202118E0,2.608924713E0,7.244784393E0,7.897506830E0
1.364535542E1,1.924697571E0,2.612367554E0,7.554939423E0,8.222288894E0
1.365532942E1,2.127376099E0,2.686014404E0,7.778125305E0,8.499390314E0
1.366530342E1,2.156715088E0,2.777174835E0,8.095615082E0,8.826273483E0
1.367527742E1,2.227817230E0,2.898722076E0,8.495433655E0,9.248683813E0
1.368525142E1,2.317031708E0,3.011587372E0,8.943302307E0,9.717044334E0
1.369522542E1,2.163451080E0,3.005001068E0,9.268126831E0,9.980417173E0
1.370519942E1,2.025737457E0,2.827021179E0,9.619146881E0,1.022857017E1
1.371517342E1,1.832189941E0,2.524799652E0,9.843679962E0,1.032615942E1
1.372514742E1,1.494791565E0,2.296524353E0,9.686207428E0,1.006633202E1
1.373512142E1,1.010997620E0,2.340832214E0,9.457782440E0,9.795471419E0
1.374509542E1,7.461982727E-1,2.396516418E0,8.909472656E0,9.256284666E0
1.375506942E1,3.540138245E-1,1.785936127E0,8.786278839E0,8.972936502E0
1.376504342E1,3.622467041E-2,1.361418915E0,8.287366333E0,8.398524539E0
1.377501742E1,8.038284302E-2,1.328188019E0,8.027207336E0,8.136743970E0
1.378499142E1,-1.531315613E-1,1.566791840E0,7.680977325E0,7.840644018E0
1.379496542E1,-5.742059326E-1,2.240690460E0,7.757168884E0,8.094694268E0
1.380493942E1,-9.327104187E-1,2.878963165E0,8.130193176E0,8.675161020E0
1.381491342E1,-7.934999084E-1,3.163820801E0,8.649912415E0,9.244478836E0
1.382488742E1,-3.218307495E-1,3.196902008E0,8.934320984E0,9.494516782E0
1.383486042E1,7.110214233E-2,3.244952087E0,8.810229034E0,9.389084364E0
1.384483442E1,1.011895752E-1,3.366349640E0,8.634793854E0,9.268344735E0
1.385480842E1,-2.125579834E-1,3.469185791E0,8.466094666E0,9.151786155E0
1.386478242E1,-4.275109863E-1,3.607498169E0,8.555608521E0,9.294904294E0
1.387475642E1,-4.574487305E-1,3.701203308E0,8.863518219E0,9.616138543E0
1.388473042E1,-6.053411865E-1,3.569028168E0,9.134604492E0,9.825751841E0
1.389470442E1,-7.988887024E-1,3.267106018E0,9.254804535E0,9.847010301E0
1.390467842E1,-9.514215088E-1,2.935695190E0,9.212742004E0,9.715869718E0
1.391465242E1,-1.177152100E0,2.664459229E0,9.100176086E0,9.555010981E0
1.392462658E1,-1.453776855E0,2.526595917E0,8.921747131E0,9.385879072E0
1.393460058E1,-1.620829468E0,2.592908020E0,8.831335144E0,9.345733818E0
1.394457458E1,-1.500629425E0,2.903512115E0,9.004974060E0,9.579761432E0
1.395454858E1,-1.151405640E0,3.462898865E0,9.307944031E0,9.997761028E0
1.396452258E1,-9.436376953E-1,4.024680634E0,9.746082916E0,1.058653100E1
1.397449658E1,-7.569758606E-1,4.217330017E0,9.976154480E0,1.085737275E1
1.398447058E1,-6.942562866E-1,4.061653748E0,9.829609222E0,1.065834135E1
1.399444458E1,-7.229965210E-1,3.940106506E0,9.494456177E0,1.030494354E1
1.400441858E1,-8.725355530E-1,4.043691101E0,9.417516174E0,1.028602775E1
1.401439258E1,-1.065184937E0,4.291575623E0,9.611812134E0,1.058013104E1
1.402436658E1,-1.272503815E0,4.302353210E0,9.667496338E0,1.065786069E1
1.403434058E1,-1.548978882E0,4.327800293E0,9.441316681E0,1.050084052E1
1.404431458E1,-1.870061188E0,4.504582672E0,9.273216248E0,1.047763969E1
1.405428858E1,-1.832489319E0,4.312532043E0,1.135209320E1,1.228112250E1
1.406426258E1,-1.705403595E0,4.079317017E0,1.006147705E1,1.099011143E1
1.407423658E1,-1.706451416E0,4.589605865E0,7.696245575E0,9.121877788E0
1.408421058E1,-1.695673828E0,5.125790863E0,8.443341980E0,1.002192923E1
1.409418458E1,-1.806892548E0,5.719905396E0,8.512498169E0,1.041368347E1
1.410415858E1,-1.608405304E0,6.108796692E0,8.037835236E0,1.022306999E1
1.411413258E1,-1.452579346E0,6.243516541E0,7.515421600E0,9.877907034E0
1.412410658E1,-1.452729034E0,6.374494171E0,7.017556915E0,9.591178376E0
1.413408058E1,-1.409768372E0,6.577621765E0,6.921756134E0,9.652111838E0
1.414405458E1,-1.306333466E0,6.852599945E0,7.175029449E0,1.000728139E1
1.415402858E1,-1.098864899E0,7.125183105E0,7.460336151E0,1.037460138E1
1.416400258E1,-9.183403015E-1,7.134912872E0,8.012986908E0,1.076839309E1
1.417397658E1,-8.608598328E-1,6.744973755E0,8.770411835E0,1.109756164E1
1.418395058E1,-7.879614258E-1,6.089037781E0,9.604178009E0,1.139901309E1
1.419392458E1,-8.021818542E-1,5.348527679E0,1.041534119E1,1.173582447E1
1.420389858E1,-9.963281250E-1,4.677622833E0,1.072055649E1,1.173895892E1
1.421387258E1,-1.415456543E0,4.230352936E0,1.054572006E1,1.145039802E1
1.422384658E1,-1.784139862E0,3.963607635E0,9.883497162E0,1.079707630E1
1.423382058E1,-2.077679443E0,3.896547089E0,8.896150360E0,9.931833784E0
1.424379458E1,-2.267933807E0,3.944148102E0,8.216713257E0,9.392241732E0
1.425376858E1,-2.474803619E0,4.111051025E0,7.654033356E0,9.033804298E0
1.426374258E1,-2.699785767E0,4.308490448E0,7.109914856E0,8.740870802E0
1.427371658E1,-2.996319122E0,4.352798309E0,6.703060913E0,8.535561318E0
1.428368958E1,-3.288511505E0,4.366419983E0,6.499783630E0,8.492768608E0
1.429366358E1,-3.609144745E0,4.337530060E0,6.360872498E0,8.502987224E0
1.430363758E1,-3.988755341E0,4.287683716E0,6.195616150E0,8.525260130E0
1.431361158E1,-4.365372162E0,4.238286438E0,6.214925995E0,8.697404852E0
1.432358558E1,-4.620591431E0,4.318369904E0,6.455475769E0,9.037220325E0
1.433355958E1,-4.651726685E0,4.543651428E0,6.657854919E0,9.306468803E0
1.434353358E1,-4.456981659E0,4.701872406E0,6.787485352E0,9.383083024E0
1.435350758E1,-4.132306824E0,4.807552643E0,6.866820374E0,9.345680507E0
1.436348158E1,-3.842509460E0,4.904101868E0,6.831344147E0,9.245666927E0
1.437345558E1,-3.541036377E0,4.984634399E0,6.696175232E0,9.067760553E0
1.438342958E1,-3.364253998E0,5.299429779E0,6.643784180E0,9.140132886E0
1.439340358E1,-3.319347382E0,5.522016907E0,6.626869354E0,9.242625990E0
1.440337758E1,-3.315006409E0,5.577401733E0,6.522835693E0,9.200220816E0
1.441335158E1,-3.467389526E0,5.593568115E0,6.499184875E0,9.249335027E0
1.442332558E1,-3.688779144E0,5.561085663E0,6.470145264E0,9.294920390E0
1.443329958E1,-3.932771759E0,5.498066711E0,6.310277710E0,9.247434025E0
1.444327358E1,-4.153113556E0,5.153483276E0,6.166277161E0,9.045977897E0
1.445324758E1,-4.264781342E0,4.897066498E0,6.191424866E0,8.972366580E0
1.446322158E1,-4.158352661E0,4.879253540E0,6.186784515E0,8.909282496E0
1.447319558E1,-4.221371613E0,4.908442841E0,6.173911285E0,8.945947125E0
1.448316958E1,-4.383783875E0,4.975054321E0,6.203998718E0,9.080656730E0
1.449314358E1,-4.467459869E0,4.913681946E0,6.307134247E0,9.158734102E0
1.450311758E1,-4.479584656E0,4.811594238E0,6.366410980E0,9.151464723E0
1.451309158E1,-4.450994110E0,4.697082367E0,6.467001801E0,9.148554182E0
1.452306558E1,-4.391567688E0,4.577780457E0,6.576124878E0,9.137141735E0
1.453303958E1,-4.330794067E0,4.728816376E0,6.838379517E0,9.374482171E0
1.454301358E1,-4.300856323E0,5.077441406E0,7.310946808E0,9.885733133E0
1.455298758E1,-4.076472931E0,5.262606354E0,7.736661530E0,1.020630143E1
1.456296158E1,-3.760629730E0,5.102589111E0,7.776179352E0,1.003233357E1
1.457293558E1,-3.542682953E0,5.161865845E0,7.517666931E0,9.783188519E0
1.458290958E1,-3.562591553E0,5.416935425E0,7.243736572E0,9.721469410E0
1.459288358E1,-3.722608795E0,5.538632355E0,7.080276489E0,9.729572435E0
1.460285758E1,-3.926185455E0,5.461093597E0,6.841672668E0,9.594110715E0
1.461283158E1,-4.284839630E0,5.350323944E0,6.723867645E0,9.601885912E0
1.462280558E1,-4.654421082E0,5.371579742E0,6.605164490E0,9.702870837E0
1.463277958E1,-4.947960663E0,5.529201965E0,6.457721100E0,9.836490782E0
1.464275358E1,-5.086273041E0,5.689219208E0,5.988297272E0,9.700365604E0
1.465272758E1,-5.509443054E0,5.970783691E0,4.009412384E0,9.059779706E0
1.466270158E1,-5.939498749E0,6.322103119E0,2.719844055E0,9.090884716E0
1.467267558E1,-5.782924347E0,6.453679504E0,3.118465118E0,9.209615510E0
1.468264958E1,-5.221292267E0,6.310128021E0,4.155957642E0,9.184312304E0
1.469262358E1,-4.936135254E0,6.038892059E0,4.481530609E0,8.995430237E0
1.470259758E1,-4.869673462E0,6.198310547E0,5.072950745E0,9.373772054E0
1.471257158E1,-4.613106995E0,6.707102509E0,5.376070404E0,9.755414558E0
1.472254558E1,-4.503534851E0,7.087311859E0,5.269941101E0,9.913833504E0
1.473251958E1,-4.558919678E0,7.065906372E0,5.323080597E0,9.952184108E0
1.474249258E1,-4.643643494E0,6.923552399E0,5.575006714E0,1.002894324E1
1.475246658E1,-4.712350616E0,6.859036560E0,6.139482880E0,1.034146416E1
1.476244058E1,-4.704566803E0,6.862778778E0,6.921307068E0,1.082290039E1
1.477241458E1,-4.677024078E0,6.808142395E0,7.674840088E0,1.127512871E1
1.478238858E1,-4.621040497E0,6.497687988E0,8.284971313E0,1.149846573E1
1.479236258E1,-4.403393097E0,6.244414673E0,8.932674408E0,1.175479721E1
1.480233658E1,-4.131857758E0,6.060596924E0,9.433532867E0,1.194967054E1
1.481231058E1,-3.895798645E0,5.998476105E0,9.624835052E0,1.199151419E1
1.482228458E1,-3.811823273E0,6.063590698E0,9.516310730E0,1.191038617E1
1.483225858E1,-3.834575958E0,6.258036346E0,9.314530334E0,1.185864524E1
1.484223258E1,-3.850143585E0,6.586303711E0,9.116043091E0,1.188718822E1
1.485220658E1,-3.682492218E0,6.873855743E0,8.999435577E0,1.190800077E1
1.486218058E1,-3.313509521E0,6.970854034E0,8.821755066E0,1.172158324E1
1.487215458E1,-2.860850830E0,7.108567657E0,8.476273499E0,1.142643488E1
1.488212858E1,-2.408042450E0,7.542814636E0,8.311466217E0,1.147925049E1
1.489210258E1,-2.107467499E0,7.920628967E0,8.538394318E0,1.183562250E1
1.490207658E1,-1.952389984E0,8.076155548E0,9.128317566E0,1.234351233E1
1.491205058E1,-1.916913757E0,7.848928070E0,9.895921326E0,1.277534693E1
1.492202458E1,-1.850152588E0,7.117848358E0,1.051084259E1,1.282827509E1
1.493199854E1,-1.764231262E0,5.989943848E0,1.088611221E1,1.254987563E1
1.494197254E1,-1.741179199E0,4.741988983E0,1.110360992E1,1.219870148E1
1.495194654E1,-1.691033478E0,3.758683777E0,1.093715607E1,1.168797163E1
1.496192054E1,-1.614841919E0,3.365601196E0,1.040591080E1,1.105522344E1
1.497189454E1,-1.523082733E0,3.451223145E0,9.755662994E0,1.045962154E1
1.498186854E1,-1.388362885E0,3.738775177E0,9.074878693E0,9.912588694E0
1.499184254E1,-1.161135406E0,4.176914062E0,8.394693146E0,9.448053743E0
1.500181654E1,-8.550219727E-1,4.680915985E0,7.667355652E0,9.023878308E0
1.501179054E1,-6.119274902E-1,5.150938568E0,6.947502594E0,8.670318084E0
1.502176454E1,-4.415817261E-1,5.560187531E0,6.278394012E0,8.398149271E0
1.503173854E1,-1.576222229E-1,5.854774933E0,5.849835205E0,8.277910739E0
1.504171254E1,1.916015625E-1,6.152206421E0,5.775589600E0,8.440603665E0
1.505168654E1,4.933740234E-1,6.403234406E0,5.875731354E0,8.704541787E0
1.506166054E1,6.474037170E-1,6.404431915E0,6.213279419E0,8.946547986E0
1.507163454E1,5.445675659E-1,6.079757080E0,6.623725891E0,9.007427195E0
1.508160854E1,2.050735474E-1,5.486690369E0,6.941664734E0,8.850566967E0
1.509158254E1,-2.583627319E-1,4.700225830E0,7.230414276E0,8.627732307E0
1.510155654E1,-6.599775696E-1,4.013753357E0,7.523355103E0,8.552581973E0
1.511153054E1,-9.975256348E-1,3.731590118E0,7.880063324E0,8.775831596E0
1.512150454E1,-1.235381012E0,3.799848175E0,8.342451782E0,9.249946710E0
1.513147854E1,-1.325493622E0,3.970792694E0,8.788224792E0,9.734321906E0
1.514145254E1,-1.300944672E0,4.010310516E0,9.051527252E0,9.985248774E0
1.515142654E1,-1.226399689E0,3.878883820E0,9.191635895E0,1.005166485E1
1.516140054E1,-1.123264160E0,3.646716614E0,9.187145233E0,9.948060211E0
1.517137454E1,-1.035247192E0,3.321143646E0,8.937464447E0,9.590620554E0
1.518134854E1,-1.028511200E0,3.185076599E0,8.583600311E0,9.213074543E0
1.519132254E1,-1.145418091E0,3.363206177E0,8.277187500E0,9.007495285E0
1.520129654E1,-1.256038055E0,3.785627747E0,8.147706757E0,9.071589410E0
1.521127054E1,-1.259480896E0,4.236340485E0,8.136480103E0,9.259329419E0
1.522124454E1,-1.134640503E0,4.614753571E0,8.109985199E0,9.399745715E0
1.523121854E1,-9.392967224E-1,4.866380310E0,7.978259125E0,9.392366811E0
1.524119254E1,-7.896080017E-1,4.971012726E0,7.972720642E0,9.428611921E0
1.525116654E1,-6.203100586E-1,4.762795715E0,8.105195160E0,9.421422195E0
1.526114054E1,-4.640350342E-1,4.319717102E0,8.401429138E0,9.458292442E0
1.527111454E1,-4.587959290E-1,3.956272888E0,8.503367157E0,9.389879758E0
1.528108854E1,-7.358697510E-1,3.774401093E0,8.344248047E0,9.187713718E0
1.529106254E1,-1.273401947E0,3.772904205E0,8.177794189E0,9.095750462E0
1.530103654E1,-1.763033752E0,3.827540588E0,8.237519989E0,9.252842295E0
1.531100954E1,-2.160457306E0,3.885619812E0,8.421188049E0,9.522711024E0
1.532098354E1,-2.364483032E0,3.829785919E0,8.554261322E0,9.666096780E0
1.533095754E1,-2.390079803E0,3.667523346E0,8.520132294E0,9.578928085E0
1.534093154E1,-2.321971436E0,3.495531006E0,8.272397461E0,9.275928423E0
1.535090554E1,-2.267634430E0,3.515738983E0,8.224796448E0,9.227668346E0
1.536087954E1,-2.112706604E0,3.710633698E0,8.592282257E0,9.594771806E0
1.537085354E1,-2.038910065E0,3.992796936E0,9.005572815E0,1.005981726E1
1.538082754E1,-1.937720490E0,4.212689667E0,9.343420258E0,1.043077260E1
1.539080154E1,-1.704505463E0,4.395160217E0,9.562714233E0,1.066153252E1
1.540077554E1,-1.444645844E0,4.544549561E0,9.633966064E0,1.074956904E1
1.541074954E1,-1.256786499E0,4.644841003E0,9.645492096E0,1.077912696E1
1.542072354E1,-1.116228790E0,4.696782990E0,9.823022919E0,1.094520518E1
1.543069754E1,-1.056652679E0,4.719236298E0,1.004546036E1,1.114894524E1
1.544067154E1,-9.933343506E-1,4.696034546E0,1.025816803E1,1.132561102E1
1.545064554E1,-9.018745422E-1,4.616998901E0,1.023736130E1,1.126648228E1
1.546061954E1,-8.999285889E-1,4.606670380E0,9.987231445E0,1.103521977E1
1.547059354E1,-1.118324432E0,4.697381744E0,9.580976257E0,1.072898648E1
1.548056754E1,-1.433868256E0,4.883295135E0,9.267528076E0,1.057306134E1
1.549054154E1,-1.641486511E0,5.141208801E0,9.285939789E0,1.074035305E1
1.550051554E1,-1.724114685E0,5.370681610E0,9.426647186E0,1.098537526E1
1.551048954E1,-1.761387177E0,5.460345154E0,9.357940063E0,1.097674342E1
1.552046354E1,-1.823358307E0,5.437293091E0,9.228758698E0,1.086548567E1
1.553043754E1,-1.898651733E0,5.338947601E0,9.128766632E0,1.074446928E1
1.554041154E1,-1.926493835E0,5.084327087E0,9.045240326E0,1.055358389E1
1.555038554E1,-1.781445465E0,4.810247040E0,9.035360870E0,1.038988790E1
1.556035954E1,-1.602118378E0,4.598587189E0,9.197024689E0,1.040668298E1
1.557033354E1,-1.418749695E0,4.358336792E0,9.508227539E0,1.055529920E1
1.558030754E1,-1.368154907E0,4.082161102E0,9.816735992E0,1.071933732E1
1.559028154E1,-1.373992767E0,3.745361481E0,1.014365616E1,1.089997014E1
1.560025554E1,-1.386865997E0,3.389850769E0,1.044497955E1,1.106851767E1
1.561022954E1,-1.512155457E0,3.083288269E0,1.063343765E1,1.117422378E1
1.562020354E1,-1.688339081E0,2.800975342E0,1.051174072E1,1.100875310E1
1.563017754E1,-1.940564575E0,2.570903778E0,1.015578094E1,1.065435234E1
1.564015154E1,-2.223775635E0,2.523751831E0,9.654024353E0,1.022324252E1
1.565012554E1,-2.494113464E0,2.598147125E0,9.054970093E0,9.744919386E0
1.566009954E1,-2.710263977E0,2.726879425E0,8.443641357E0,9.277741190E0
1.567007354E1,-2.844235382E0,2.913092194E0,7.992479553E0,8.969699574E0
1.568004754E1,-2.874622192E0,3.181783447E0,7.799680481E0,8.900686168E0
1.569002154E1,-2.776576080E0,3.549718323E0,7.686815186E0,8.910499571E0
1.569999554E1,-2.525248718E0,3.807482300E0,7.654781799E0,8.914565999E0
1.570996954E1,-2.093396759E0,3.980821838E0,7.611521759E0,8.841069844E0
1.571994354E1,-1.692380676E0,4.155807953E0,7.535479889E0,8.770310670E0
1.572991754E1,-1.376387787E0,4.350702667E0,7.533084869E0,8.807407376E0
1.573989154E1,-1.207239532E0,4.539609833E0,7.718549194E0,9.035567851E0
1.574986554E1,-1.122815094E0,4.618495789E0,8.063282318E0,9.359900578E0
1.575983954E1,-1.108295288E0,4.458478546E0,8.535550232E0,9.693398122E0
1.576981354E1,-1.083297272E0,4.059558105E0,9.001830597E0,9.934107866E0
1.577978754E1,-1.102158051E0,3.537443848E0,9.373807068E0,1.007950992E1
1.578976154E1,-1.198856964E0,3.075205078E0,9.513316956E0,1.006962481E1
1.579973554E1,-1.394949188E0,2.738405457E0,9.385033722E0,9.875404075E0
1.580970954E1,-1.655257874E0,2.612517242E0,8.985514526E0,9.502873054E0
1.581968354E1,-1.845362549E0,2.743195496E0,8.415200500E0,9.041354098E0
1.582965754E1,-1.963916016E0,3.063080292E0,7.800279236E0,8.607193686E0
1.583963154E1,-1.982776794E0,3.443589020E0,7.538174286E0,8.521371997E0
1.584960554E1,-1.929637299E0,3.761527863E0,7.462282104E0,8.576610413E0
1.585957954E1,-1.811383209E0,3.972139893E0,7.437882843E0,8.624448136E0
1.586955354E1,-1.625170441E0,4.109105072E0,7.608078918E0,8.798226428E0
1.587952754E1,-1.528621216E0,4.165537720E0,7.810757446E0,8.983113002E0
1.588950154E1,-1.640139313E0,4.111051025E0,7.966882782E0,9.113836665E0
1.589947554E1,-1.745969238E0,3.979923706E0,8.060737610E0,9.157712165E0
1.590944954E1,-1.857637024E0,3.871698761E0,8.008196869E0,9.086918273E0
1.591942354E1,-2.007026367E0,3.845652924E0,7.851921844E0,8.970500426E0
1.592939733E1,-2.128723297E0,3.902085571E0,7.678432617E0,8.872207287E0
1.593937033E1,-2.155068512E0,4.027674408E0,7.551346893E0,8.825492696E0
1.594934433E1,-2.126328278E0,4.214186554E0,7.563771057E0,8.915787843E0
1.595931833E1,-2.025587769E0,4.450994110E0,7.666457520E0,9.093345109E0
1.596929233E1,-1.967358856E0,4.607867889E0,7.254214783E0,8.816267888E0
1.597926633E1,-1.961520996E0,4.762945404E0,6.568041687E0,8.346998571E0
1.598924033E1,-2.086062012E0,5.123246155E0,6.159092102E0,8.278509612E0
1.599921433E1,-2.238744507E0,5.617817688E0,6.200106812E0,8.661014780E0
1.600918833E1,-2.391127625E0,5.995332642E0,6.547384644E0,9.194006225E0
1.601916233E1,-2.386337585E0,6.095923462E0,6.911577301E0,9.519705390E0
1.602913633E1,-2.299218750E0,5.946833496E0,7.262896729E0,9.664414332E0
1.603911033E1,-2.226170654E0,5.684279480E0,7.526049500E0,9.690628982E0
1.604908433E1,-2.311792603E0,5.447771301E0,7.771539001E0,9.768286218E0
1.605905833E1,-2.482886810E0,5.398673401E0,8.211474152E0,1.013601051E1
1.606903233E1,-2.594105530E0,5.520969086E0,9.058113556E0,1.092061831E1
1.607900633E1,-2.467768250E0,5.563031616E0,9.893975372E0,1.161584907E1
1.608898033E1,-2.105222168E0,5.513035583E0,1.044348267E1,1.199549298E1
1.609895433E1,-1.842668152E0,5.333858185E0,1.029798523E1,1.174282627E1
1.610892833E1,-1.915716248E0,5.137765961E0,9.441166992E0,1.091797793E1
1.611890233E1,-2.274819489E0,5.172194366E0,8.180488586E0,9.942172387E0
1.612887633E1,-2.709964600E0,5.405708771E0,7.239245911E0,9.432511691E0
1.613885033E1,-2.890040131E0,5.685327301E0,7.023544464E0,9.487120497E0
1.614882433E1,-2.812800751E0,5.864504700E0,6.726262665E0,9.356648592E0
1.615879833E1,-2.771935730E0,5.912854156E0,5.892047424E0,8.795549717E0
1.616877233E1,-2.944526825E0,6.001320190E0,5.654341736E0,8.755436181E0
1.617874633E1,-2.928659821E0,6.310876465E0,6.263574829E0,9.361441114E0
1.618872033E1,-2.661615143E0,6.689588928E0,7.642806702E0,1.049987093E1
1.619869433E1,-2.271077271E0,6.986122284E0,8.951684875E0,1.157999821E1
1.620866833E1,-1.925296326E0,6.956034851E0,9.507928162E0,1.193708024E1
1.621864233E1,-1.723515930E0,6.690487061E0,9.486672363E0,1.173584581E1
1.622861633E1,-1.761985931E0,6.143823853E0,8.918453979E0,1.097223712E1
1.623859033E1,-2.021097107E0,5.605842590E0,8.184230804E0,1.012383023E1
1.624856433E1,-2.499951324E0,5.348078613E0,7.461833038E0,9.514759785E0
1.625853833E1,-2.723735962E0,5.368286591E0,7.442373505E0,9.572155551E0
1.626851233E1,-2.370171204E0,5.594615936E0,8.278834076E0,1.026920312E1
1.627848633E1,-1.860032043E0,5.840404816E0,9.091643829E0,1.096485454E1
1.628846033E1,-1.180594940E0,6.017486572E0,9.209448853E0,1.106426216E1
1.629843433E1,-5.962101746E-1,6.030509491E0,8.819659424E0,1.070088331E1
1.630840833E1,-1.537303162E-1,6.238726501E0,8.605454865E0,1.063010794E1
1.631838233E1,1.716929626E-1,6.400240631E0,8.511300659E0,1.065057733E1
1.632835633E1,5.409750366E-1,6.351591797E0,8.477021942E0,1.060637890E1
1.633833033E1,9.277706909E-1,6.106551361E0,8.432863770E0,1.045293831E1
1.634830433E1,1.279090118E0,5.771847382E0,8.686286774E0,1.050722949E1
1.635827833E1,1.546284485E0,5.437143402E0,9.319619751E0,1.089994662E1
1.636825233E1,1.701811066E0,5.028642883E0,9.999805298E0,1.132163929E1
1.637822633E1,1.760638733E0,4.741689606E0,1.073687256E1,1.186860992E1
1.638820033E1,1.670825500E0,4.620591431E0,1.132559830E1,1.234547285E1
1.639817433E1,1.473984833E0,4.498894501E0,1.139550293E1,1.233977998E1
1.640814833E1,1.177900543E0,4.331692200E0,1.100122284E1,1.188183113E1
1.641812233E1,9.379495239E-1,4.231700134E0,1.044108765E1,1.130501422E1
1.642809633E1,8.155041504E-1,4.280199280E0,9.832453308E0,1.075464044E1
1.643807033E1,7.485932922E-1,4.364024963E0,9.052874451E0,1.007768037E1
1.644804433E1,8.268804932E-1,4.443210297E0,8.252937927E0,9.409401337E0
1.645801833E1,9.743238831E-1,4.603526917E0,7.494165802E0,8.848971023E0
1.646799233E1,1.119671631E0,4.811594238E0,6.921456757E0,8.503626715E0
1.647796633E1,1.218615875E0,5.037324829E0,6.559659119E0,8.359951784E0
1.648794033E1,1.454076233E0,5.318290558E0,6.488407288E0,8.514574639E0
1.649791433E1,1.553469543E0,5.391787720E0,6.563551025E0,8.635093775E0
1.650788833E1,1.596729584E0,5.323679352E0,6.646029510E0,8.663764509E0
1.651786233E1,1.546134796E0,5.159470825E0,6.863826599E0,8.724837396E0
1.652783633E1,1.524429932E0,4.940775604E0,7.207960968E0,8.870730043E0
1.653781033E1,1.345701599E0,4.657115479E0,7.389234009E0,8.837444009E0
1.654778433E1,9.717791748E-1,4.398752747E0,7.418423309E0,8.679077421E0
1.655775833E1,5.777984619E-1,4.257596283E0,7.222181396E0,8.403623105E0
1.656773233E1,1.725910950E-1,4.209546204E0,6.856192474E0,8.047200890E0
1.657770633E1,-1.514849854E-1,4.292922821E0,6.460116119E0,7.757914302E0
1.658768033E1,-4.098477173E-1,4.475093994E0,6.115981750E0,7.589444919E0
1.659765433E1,-5.489085388E-1,4.629273376E0,5.943240967E0,7.553382406E0
1.660762833E1,-5.785469055E-1,4.778213654E0,5.955964508E0,7.657646862E0
1.661760233E1,-5.541476440E-1,4.886438599E0,6.209537201E0,7.921029860E0
1.662757633E1,-3.350033569E-1,4.947212219E0,6.670129395E0,8.311303275E0
1.663755033E1,-1.398092651E-1,4.921465759E0,7.135960693E0,8.669619765E0
1.664752433E1,4.355941772E-2,4.839586029E0,7.348368988E0,8.798978187E0
1.665749733E1,5.493576050E-2,4.785698090E0,7.202721863E0,8.647839405E0
1.666747133E1,-9.729766846E-2,4.880600739E0,6.847510529E0,8.409407283E0
1.667744533E1,-3.251239014E-1,5.114863586E0,6.706952820E0,8.441016004E0
1.668741933E1,-4.662803650E-1,5.253774719E0,6.822811890E0,8.623823297E0
1.669739333E1,-4.231700134E-1,5.271288300E0,7.046596527E0,8.810225639E0
1.670736733E1,-2.731819153E-1,5.188211060E0,7.248676300E0,8.918266113E0
1.671734133E1,-2.231858826E-1,5.165308685E0,7.425159302E0,9.047829376E0
1.672731533E1,-2.778222656E-1,5.195096741E0,7.628885651E0,9.233965109E0
1.673728933E1,-4.040098572E-1,5.242098999E0,7.804919586E0,9.410610800E0
1.674726333E1,-4.737648010E-1,5.293442230E0,7.990533600E0,9.596541614E0
1.675723733E1,-5.514532471E-1,5.369035034E0,8.228987732E0,9.841081088E0
1.676721133E1,-5.441184998E-1,5.510041809E0,8.544531555E0,1.018163274E1
1.677718533E1,-5.002597046E-1,5.629942474E0,8.657396851E0,1.033910210E1
1.678715933E1,-6.036946106E-1,5.675597534E0,8.560697937E0,1.028894571E1
1.679713333E1,-8.396040344E-1,5.679639130E0,8.296197968E0,1.008910979E1
1.680710733E1,-1.142424316E0,5.695506134E0,8.073161774E0,9.945846594E0
