"Time (s)","Acceleration x (m/s^2)","Acceleration y (m/s^2)","Acceleration z (m/s^2)","Absolute acceleration (m/s^2)"
7.317084819E-4,-3.678750000E0,6.062243500E0,4.329746246E0,8.308471603E0
1.069970848E-2,-3.145259399E0,6.045328674E0,3.343746643E0,7.590737585E0
2.066770848E-2,-2.912942505E0,6.250252533E0,3.401376801E0,7.688969691E0
3.063470870E-2,-2.928659821E0,6.423292694E0,4.097579041E0,8.162468461E0
4.060270870E-2,-2.888543243E0,6.556515656E0,4.601431274E0,8.514972072E0
5.056970846E-2,-2.683320007E0,6.859036560E0,5.413642273E0,9.140793809E0
6.053770846E-2,-2.880310364E0,6.890022125E0,6.480623474E0,9.887723362E0
7.050570846E-2,-3.294648743E0,6.653963013E0,6.797364807E0,1.006648411E1
8.047270868E-2,-3.591631165E0,6.344706116E0,7.288044434E0,1.030876820E1
9.044070868E-2,-3.683989105E0,5.960155792E0,7.587571564E0,1.032794631E1
1.004077084E-1,-3.525468750E0,5.514532471E0,7.425758057E0,9.898529234E0
1.103757084E-1,-3.180885315E0,5.463338928E0,7.969277802E0,1.017229042E1
1.203437084E-1,-2.587668915E0,5.646557922E0,8.243507538E0,1.032158240E1
1.303107087E-1,-2.093097382E0,5.845344543E0,7.846083984E0,1.000550565E1
1.402787087E-1,-1.887425079E0,5.950875092E0,7.729177094E0,9.935565728E0
1.502457084E-1,-1.470242615E0,6.009403381E0,7.431446228E0,9.669588170E0
1.602137084E-1,-1.688488770E0,5.548661499E0,7.207362213E0,9.251200399E0
1.701817084E-1,-1.480421448E0,5.087171173E0,7.163204041E0,8.909682954E0
1.801487086E-1,-1.275497589E0,5.739813995E0,7.171586609E0,9.273834875E0
1.901167086E-1,-8.027806091E-1,6.616241455E0,6.338269501E0,9.197432683E0
2.000837084E-1,-1.447489929E-1,7.212900696E0,6.081703033E0,9.435782983E0
2.100517084E-1,3.887416077E-1,7.382198639E0,6.831344147E0,1.006554716E1
2.200197084E-1,6.942562866E-1,7.043303375E0,7.224726105E0,1.011369277E1
2.299867086E-1,1.042432251E0,6.517895966E0,6.558760986E0,9.305212437E0
2.399547086E-1,1.101559296E0,6.150110779E0,5.497168579E0,8.322028470E0
2.499217084E-1,-1.411265259E0,5.514981537E0,4.015998688E0,6.966701977E0
2.598894583E-1,-4.784799957E0,5.326972504E0,2.625989227E0,7.626713978E0
2.698574583E-1,-4.433330841E0,5.940995636E0,3.854185181E0,8.354914416E0
2.798244585E-1,-4.810845795E0,5.684728546E0,5.149591370E0,9.054207153E0
2.897924585E-1,-3.901337128E0,5.820196838E0,6.513405304E0,9.566586187E0
2.997594583E-1,-2.360441437E0,6.343358917E0,7.201674042E0,9.883015488E0
3.097274583E-1,-8.178991699E-1,6.634054413E0,7.183262329E0,9.812180935E0
3.196954583E-1,-2.484832764E-2,7.451504517E0,7.160060577E0,1.033402170E1
3.296624585E-1,-2.944377136E-1,7.284900970E0,6.377787323E0,9.686725291E0
3.396304585E-1,-4.849914551E-1,7.153623962E0,4.901108093E0,8.685068396E0
3.495974587E-1,-9.660910034E-1,6.744375000E0,3.752097473E0,7.778056403E0
3.595654587E-1,-1.952539673E0,5.788762207E0,3.315754852E0,6.951000597E0
3.695334587E-1,-2.713108063E0,5.054838409E0,3.530707855E0,6.736337630E0
3.795004585E-1,-2.141895905E0,5.460345154E0,4.405788116E0,7.335806445E0
3.894684585E-1,-1.147513733E0,6.121520233E0,5.453459473E0,8.278285931E0
3.994354587E-1,-1.013692017E0,6.354435883E0,6.749763794E0,9.325542245E0
4.094034587E-1,-2.207309875E0,6.783743134E0,8.605604553E0,1.117800597E1
4.193714587E-1,-3.771557007E0,7.099137268E0,9.491612091E0,1.243837177E1
4.293384585E-1,-4.936135254E0,7.372618561E0,8.418493652E0,1.223077966E1
4.393064585E-1,-5.119653625E0,8.238567810E0,5.338199158E0,1.107164049E1
4.492744585E-1,-5.326373749E0,7.867489471E0,3.377127228E0,1.008328499E1
4.592414587E-1,-6.140680389E0,7.221732330E0,3.834875336E0,1.022583211E1
4.692094587E-1,-5.865552521E0,7.642507324E0,4.813989258E0,1.076973153E1
4.791764584E-1,-5.425916748E0,8.095914459E0,5.990991669E0,1.144012171E1
4.891444584E-1,-3.546874237E0,7.452402649E0,8.132588196E0,1.158695874E1
4.991124584E-1,1.082698517E0,6.064937897E0,1.069840256E1,1.234550627E1
5.090794587E-1,3.218906250E0,6.174210663E0,1.023197250E1,1.237640885E1
5.190474587E-1,-2.370470581E0,7.310497742E0,1.059302170E1,1.308719285E1
5.290144584E-1,-4.396208038E0,9.464219055E0,1.161120438E1,1.561147509E1
5.389824584E-1,-1.827250214E0,9.796827393E0,1.074196198E1,1.465286379E1
5.489504584E-1,-6.827302551E-1,8.536148987E0,1.073357941E1,1.373104829E1
5.589174586E-1,-4.197271729E-1,7.696544952E0,1.102083206E1,1.344885551E1
5.688854586E-1,-7.544311523E-2,7.456294556E0,1.092862381E1,1.323014885E1
5.788524584E-1,6.177653503E-1,7.361391907E0,1.145268402E1,1.362848840E1
5.888204584E-1,1.942061462E0,7.559729462E0,1.049886749E1,1.308232895E1
5.987884584E-1,2.465971985E0,7.374863892E0,8.233179016E0,1.132496675E1
6.087554586E-1,2.466870117E0,6.712042236E0,6.363117828E0,9.572158986E0
6.187234586E-1,3.359164581E0,5.632936249E0,7.143295441E0,9.697454677E0
6.286904584E-1,4.488565979E0,6.199807434E0,2.313738556E0,7.996137997E0
6.386584584E-1,5.173840942E0,6.318809967E0,2.125579834E-2,8.166788923E0
6.486264584E-1,4.302203522E0,4.837640076E0,1.387165375E0,6.620871878E0
6.585934586E-1,5.970484314E0,5.388494568E0,2.742297363E-1,8.047220551E0
6.685614586E-1,6.294410706E0,5.625451813E0,4.101770325E0,9.385618468E0
6.785284583E-1,4.971162415E0,5.977220306E0,7.021149445E0,1.047550275E1
6.884964583E-1,2.511028290E0,5.276976471E0,9.425599365E0,1.109025100E1
6.984644583E-1,3.176694031E0,5.375771027E0,7.504943390E0,9.762913212E0
7.084314586E-1,3.985162811E0,5.369783478E0,5.813161469E0,8.860527269E0
7.183994586E-1,2.961291962E0,5.601202240E0,4.630021820E0,7.847280973E0
7.283664583E-1,-4.217779083E0,5.159470825E0,9.040300598E0,1.123106560E1
7.383344583E-1,-4.151317291E0,5.765710144E0,5.416785736E0,8.934115313E0
7.483024583E-1,-2.866539001E0,6.983577576E0,-2.834655304E0,8.063663702E0
7.582694585E-1,-1.632056122E0,6.215225372E0,-3.494782562E0,7.314789045E0
7.682374585E-1,6.544390869E-1,4.573589172E0,-2.358794861E0,5.187477386E0
7.782044583E-1,3.819457397E0,3.413651276E0,-1.365011444E0,5.301370208E0
7.881724583E-1,7.549251251E0,1.744921417E0,8.834628296E-1,7.798490352E0
7.981404583E-1,6.780150604E0,4.192781067E-1,3.273093567E0,7.540515755E0
8.081074585E-1,-1.215173035E0,8.526269531E-1,8.941506042E0,9.063892571E0
8.180754585E-1,-6.997348938E0,3.072061615E0,9.182953949E0,1.194684469E1
8.280424587E-1,-2.794838104E0,5.508544922E0,5.541476440E0,8.298382272E0
8.380104587E-1,-4.469705200E-1,5.261259155E0,2.928809509E0,6.038092057E0
8.479784587E-1,2.046993256E0,4.993316345E0,-7.204518127E-1,5.444487150E0
8.579454585E-1,3.767964478E0,3.988905029E0,-3.042572937E0,6.274246546E0
8.679134585E-1,5.216801605E0,3.863914948E0,-2.439028015E0,6.934963256E0
8.778804587E-1,5.011728058E0,3.764671326E0,7.129673767E-1,6.308604505E0
8.878484587E-1,4.997357941E0,3.520978088E0,6.373596039E0,8.831398505E0
8.978164587E-1,5.659431152E0,3.197500763E0,8.960666199E0,1.107008179E1
9.077834585E-1,7.205266571E0,1.383423157E0,1.022224274E1,1.258268543E1
9.177514585E-1,6.522386627E0,-1.609153748E-1,5.419180756E0,8.481446877E0
9.277184587E-1,4.959337006E0,3.460803223E-1,3.340154114E0,5.989275802E0
9.376864587E-1,3.431913300E0,1.404080200E0,3.891607361E0,5.375321196E0
9.476544587E-1,3.407064972E0,1.588347015E0,2.723885651E0,4.642250640E0
9.576214585E-1,5.119803314E0,2.231260071E0,1.961670685E0,5.919379981E0
9.675894585E-1,7.303312683E0,3.229534149E0,1.212328949E0,8.077004918E0
9.775564587E-1,9.228609009E0,4.090393982E0,-2.540217590E-1,1.009767667E1
9.875244587E-1,1.096634537E1,4.601431274E0,-3.135379944E0,1.229896369E1
9.974924587E-1,1.225935654E1,3.640878754E0,-3.829187164E0,1.334955037E1
1.007459458E0,1.214319809E1,1.110839996E0,-2.175725555E0,1.238648485E1
1.017427458E0,1.142139908E1,-1.086590424E0,9.813592529E-1,1.151486438E1
1.027394459E0,9.913285217E0,-2.008523254E0,6.861730957E0,1.222255052E1
1.037362459E0,8.245154114E0,-8.975335693E-1,1.326272003E1,1.564250221E1
1.047330459E0,9.641300812E0,-1.697470093E-1,9.315877533E0,1.340779883E1
1.057297458E0,1.180011154E1,-1.410067749E-1,7.464228058E0,1.396342421E1
1.067265458E0,1.309746368E1,7.391629028E-1,4.927004242E0,1.401303991E1
1.077233458E0,1.319116882E1,1.267713776E0,1.089584198E0,1.329666225E1
1.087200459E0,1.435499863E1,1.971101074E0,-5.418731689E-1,1.449982247E1
1.097168459E0,1.563244217E1,1.973496094E0,4.650828552E-1,1.576338279E1
1.107135458E0,1.499057693E1,1.242715759E0,2.917433167E0,1.532230908E1
1.117103458E0,1.479687973E1,7.496411133E-1,4.494852905E0,1.548267788E1
1.127071458E0,1.430081131E1,1.883084106E-1,5.159021759E0,1.520408398E1
1.137038459E0,1.265603165E1,8.476872253E-1,4.801714783E0,1.356282329E1
1.147006459E0,1.204724762E1,1.939217377E0,2.211800537E0,1.240116127E1
1.156973458E0,1.392030258E1,3.096610565E0,-1.169068909E-1,1.426104793E1
1.166941458E0,1.708606934E1,4.371060333E0,-7.354206848E-1,1.765165084E1
1.176909458E0,2.020932449E1,5.456902313E0,1.305285645E-1,2.093350465E1
1.186876459E0,2.184153030E1,5.488935699E0,1.158890076E0,2.255047422E1
1.196844459E0,1.917826859E1,3.421285400E0,9.231303406E-1,1.950290618E1
1.206811458E0,1.331091980E1,4.457730103E-1,1.179846497E0,1.337053990E1
1.216779458E0,7.581284637E0,-1.499282227E0,2.516866150E0,8.127628139E0
1.226747458E0,6.204298096E0,-6.433621216E-1,3.411855011E0,7.109710563E0
1.236714459E0,9.690548401E0,2.631078644E0,4.325405273E0,1.093336334E1
1.246682459E0,1.504281830E1,5.959706726E0,5.392685852E0,1.705536711E1
1.256649500E0,1.870824600E1,7.732320557E0,5.602998505E0,2.100430532E1
1.266617500E0,1.907633057E1,7.801776123E0,4.583917694E0,2.111365435E1
1.276585500E0,1.693114151E1,6.736890564E0,3.218906250E0,1.850434016E1
1.286552500E0,1.376387787E1,4.736749878E0,1.885030060E0,1.467768618E1
1.296520500E0,1.088506439E1,1.848506012E0,4.010160828E-1,1.104818606E1
1.306487500E0,8.365054779E0,-1.177900543E0,-3.447331238E-1,8.454610108E0
1.316455500E0,5.722899170E0,-3.136577454E0,3.936813354E-1,6.537941421E0
1.326423500E0,3.579805756E0,-3.233426056E0,1.757195892E0,5.133983902E0
1.336390500E0,4.135749664E0,-1.896406403E0,2.646795959E0,5.263678503E0
1.346358500E0,7.231462097E0,1.778302002E-1,2.887495422E0,7.788664677E0
1.356325500E0,1.174397827E1,2.763852539E0,2.779719543E0,1.238090252E1
1.366293500E0,1.464240097E1,5.015021210E0,1.687590637E0,1.556914596E1
1.376261500E0,1.479403564E1,5.864205322E0,3.728746033E-1,1.591827347E1
1.386228500E0,1.383647690E1,5.474116516E0,6.990463257E-2,1.488015226E1
1.396196500E0,1.320853271E1,4.106260986E0,5.083428955E-1,1.384142797E1
1.406163500E0,1.175924652E1,2.028282166E0,7.963439941E-1,1.195943021E1
1.416131500E0,9.756710815E0,2.686912537E-1,1.157842255E0,9.828845284E0
1.426099500E0,9.071735229E0,-3.107537842E-1,1.389410706E0,9.182777907E0
1.436066500E0,1.057969940E1,5.037025452E-1,1.408421173E0,1.068491488E1
1.446034500E0,1.256127869E1,2.262395325E0,2.134261780E0,1.294060386E1
1.456001500E0,1.336495743E1,3.973038025E0,3.092419281E0,1.428181274E1
1.465969500E0,1.300540512E1,4.596790924E0,2.934497681E0,1.410256451E1
1.475937500E0,1.211475723E1,3.629053345E0,1.811532898E0,1.277572004E1
1.485904500E0,1.076336746E1,1.659299469E0,5.763015747E-1,1.090575432E1
1.495872500E0,8.848100281E0,-1.913021851E-1,-4.113446045E-1,8.859722314E0
1.505839500E0,7.521259460E0,-9.397457886E-1,-8.319699097E-1,7.625263271E0
1.515807500E0,7.578739929E0,-3.941304016E-1,-6.089337158E-1,7.613372312E0
1.525775500E0,8.881929932E0,8.460406494E-1,-3.344046021E-1,8.928397982E0
1.535742500E0,1.030621811E1,1.975142670E0,-2.857557678E-1,1.049766529E1
1.545710500E0,1.196821198E1,3.057691498E0,1.014889526E-1,1.235305125E1
1.555678500E0,1.343336517E1,4.381239166E0,1.476828918E0,1.420674418E1
1.565645500E0,1.400936737E1,4.749024353E0,2.374961243E0,1.498185727E1
1.575613500E0,1.335103638E1,3.355721741E0,1.699116669E0,1.387076199E1
1.585580500E0,1.141256744E1,1.206790466E0,9.015751648E-1,1.151155405E1
1.595548500E0,9.294621735E0,-3.968247986E-1,9.147477722E-1,9.347953070E0
1.605516500E0,7.970774689E0,-1.192719727E0,1.037642212E0,8.126040293E0
1.615483500E0,7.372917938E0,-1.202000427E0,7.897576904E-1,7.511886658E0
1.625451500E0,7.306605835E0,-7.435038757E-1,4.601431274E-1,7.358737564E0
1.635418500E0,7.779921570E0,-3.423381042E-1,1.715432739E-1,7.789339003E0
1.645386500E0,8.494385834E0,-0.000000000E0,-1.338217163E-1,8.495439891E0
1.655354500E0,9.256451111E0,2.606080627E-1,-1.718426514E-1,9.261713320E0
1.665321500E0,9.964029694E0,-5.987548828E-3,-1.957928467E-1,9.965954968E0
1.675289500E0,9.962981873E0,-5.550457764E-1,-1.218466187E-1,9.979174826E0
1.685256500E0,8.951086121E0,-1.078207855E0,1.393601990E-1,9.016867315E0
1.695224500E0,8.173902283E0,-1.385668488E0,2.359094238E-1,8.293877799E0
1.705192500E0,7.928113403E0,-1.482966156E0,3.969744873E-1,8.075379836E0
1.715159500E0,8.158783722E0,-1.271306305E0,6.938072205E-1,8.286334534E0
1.725127500E0,8.581654358E0,-9.800120544E-1,1.033301239E0,8.699018715E0
1.735094500E0,9.303752747E0,-6.586303711E-1,1.289568329E0,9.415763145E0
1.745062500E0,1.014380585E1,-4.331991577E-1,1.354682922E0,1.024302809E1
1.755030500E0,1.111648315E1,-3.405418396E-1,9.292675781E-1,1.116045271E1
1.764997500E0,1.156285492E1,-1.314266968E-1,2.644999695E-1,1.156662644E1
1.774965500E0,1.107472000E1,-3.996688843E-2,-1.344204712E-1,1.107560785E1
1.784932500E0,1.006551865E1,-2.841091919E-1,-3.043171692E-1,1.007412490E1
1.794900500E0,9.028624878E0,-7.668553162E-1,-1.766326904E-2,9.061150382E0
1.804868500E0,8.457712097E0,-1.173709259E0,4.282594299E-1,8.549496680E0
1.814835500E0,8.521479492E0,-1.276545410E0,9.496252441E-1,8.668735146E0
1.824803500E0,9.064400482E0,-1.092877350E0,1.255888367E0,9.216018261E0
1.834771500E0,9.478888550E0,-1.062041473E0,1.055604858E0,9.596434851E0
1.844738500E0,9.507778473E0,-1.279239807E0,5.748046875E-1,9.610655878E0
1.854706500E0,9.354796600E0,-1.472338257E0,2.915936279E-1,9.474440681E0
1.864673500E0,9.459129639E0,-1.428329773E0,2.600093079E-1,9.569893641E0
1.874641500E0,9.676627350E0,-1.134640503E0,4.568499756E-1,9.753626907E0
1.884609500E0,1.014889526E1,-7.821235657E-1,5.745053101E-1,1.019518753E1
1.894576500E0,1.045560745E1,-5.366340637E-1,7.625143433E-1,1.049710110E1
1.904544500E0,1.033765274E1,-4.177812195E-1,1.024768982E0,1.039671856E1
1.914511500E0,1.006237518E1,-4.204756165E-1,1.130449219E0,1.013440228E1
1.924479500E0,9.600435791E0,-8.728349304E-1,6.750961304E-1,9.663641290E0
1.934447500E0,8.848699036E0,-1.448687439E0,1.365161133E-1,8.967541835E0
1.944414500E0,8.088729401E0,-1.700164490E0,-1.031355286E-1,8.266119981E0
1.954382500E0,7.682623901E0,-1.781295776E0,-7.439529419E-2,7.886777499E0
1.964350500E0,8.063731384E0,-1.764231262E0,1.016386414E-1,8.255095772E0
1.974317500E0,8.997789001E0,-1.598974915E0,5.049000549E-1,9.152696420E0
1.984285500E0,9.521100769E0,-1.405726776E0,7.949967957E-1,9.657093120E0
1.994252500E0,9.520951080E0,-1.186283112E0,8.267308044E-1,9.630122581E0
2.004220500E0,8.517288208E0,-1.292262726E0,8.529263306E-1,8.656883082E0
2.014188500E0,7.148534546E0,-1.629661102E0,7.628137207E-1,7.371514514E0
2.024155500E0,5.759423218E0,-1.886976013E0,8.122109985E-1,6.114844314E0
2.034123500E0,4.750521240E0,-1.946701813E0,8.641529846E-1,5.206136800E0
2.044090500E0,4.086053009E0,-1.939666443E0,6.869215393E-1,4.574931289E0
2.054058500E0,3.499422913E0,-1.643582153E0,4.468208313E-1,3.891911082E0
2.064026500E0,3.561992798E0,-1.157692566E0,2.897973633E-1,3.756597833E0
2.073993500E0,4.598287811E0,-8.952882385E-1,5.138813782E-1,4.712734439E0
2.083961500E0,6.239175568E0,-7.508386230E-1,9.026229858E-1,6.348684797E0
2.093928500E0,7.327861633E0,-1.062789917E0,1.304537201E0,7.518570066E0
2.103896500E0,6.422993317E0,-2.196981354E0,1.449884949E0,6.941450611E0
2.113864500E0,3.681594086E0,-3.450923767E0,1.309925995E0,5.213340193E0
2.123831500E0,7.571255493E-1,-4.478387146E0,6.822811890E-1,4.592896488E0
2.133799500E0,-1.022224274E0,-5.040617981E0,-1.707948303E-1,5.146060918E0
2.143767500E0,-9.309141541E-1,-4.722828827E0,-3.540138245E-1,4.826700641E0
2.153734500E0,1.122066650E0,-3.517984314E0,2.544708252E-2,3.692681242E0
2.163702500E0,5.329517212E0,-2.032473450E0,-7.993377686E-2,5.704479945E0
2.173669500E0,9.792187042E0,-3.728746033E-1,-6.911128235E-1,9.823624559E0
2.183637500E0,1.271575745E1,1.104702759E0,-9.666897583E-1,1.280020878E1
2.193605500E0,1.423135574E1,1.586550751E0,-9.586065674E-1,1.435156981E1
2.203572500E0,1.443133987E1,5.132826233E-1,-6.173162842E-1,1.445365383E1
2.213540500E0,1.367616028E1,-1.627415771E0,1.577719116E-1,1.377355198E1
2.223507500E0,1.257505005E1,-4.083358612E0,5.361849976E-1,1.323227855E1
2.233475500E0,1.153935379E1,-5.665119324E0,3.239263916E-1,1.285905094E1
2.243443500E0,1.192120972E1,-5.368585968E0,5.643264771E-2,1.307440787E1
2.253410500E0,1.512350052E1,-3.403322754E0,-1.291813660E-1,1.550224376E1
2.263378709E0,2.089130630E1,-9.810598755E-1,-3.490740967E-1,2.091724194E1
2.273345708E0,2.725666946E1,4.897814941E-1,-4.878355408E-1,2.726543416E1
2.283313708E0,3.211272125E1,9.192384338E-1,7.819738770E-1,3.213539091E1
2.293281708E0,3.455354553E1,5.962101746E-1,2.835403748E0,3.467481060E1
2.303248709E0,3.347548737E1,-6.972500610E-1,3.658392334E0,3.368201666E1
2.313216709E0,3.034040680E1,-3.075354767E0,2.312541046E0,3.058342587E1
2.323184709E0,2.947924759E1,-5.055437164E0,7.461982727E-1,2.991889529E1
2.333151708E0,2.980976028E1,-5.335504761E0,5.698649597E-1,3.028884556E1
2.343119708E0,3.070444977E1,-4.790637817E0,1.979184265E0,3.113889235E1
2.353086709E0,3.237243118E1,-4.419260101E0,3.510649567E0,3.286074894E1
2.363054709E0,3.356260620E1,-4.179309082E0,4.139641571E0,3.407421007E1
2.373022709E0,3.337774063E1,-4.064048767E0,3.696562958E0,3.382683313E1
2.382989708E0,3.198024673E1,-3.500171356E0,2.978805542E0,3.230883259E1
2.392957708E0,2.887495422E1,-2.704126740E0,2.096689911E0,2.907699076E1
2.402924709E0,2.432561462E1,-2.532284088E0,1.016685791E0,2.447818701E1
2.412892709E0,1.922317520E1,-2.819536743E0,-5.822891235E-2,1.942893828E1
2.422860709E0,1.388422760E1,-3.381168823E0,-6.753955078E-1,1.430595113E1
2.432827708E0,8.703800354E0,-3.706143036E0,-1.168320465E0,9.531873348E0
2.442795708E0,4.206402740E0,-3.439098358E0,-1.981728973E0,5.783465333E0
2.452762709E0,4.808001709E-1,-2.567610626E0,-3.066523132E0,4.028319408E0
2.462730709E0,-1.811532898E0,-7.226971436E-1,-4.183500366E0,4.615800896E0
2.472698709E0,-3.866759033E0,1.298699341E0,-4.333488464E0,5.951266056E0
2.482665708E0,-5.237308960E0,2.353106689E0,-3.517535248E0,6.733466452E0
2.492633708E0,-5.197491760E0,1.731748810E0,-2.553839264E0,6.044416392E0
2.502601708E0,-4.466262360E0,-2.517764282E-1,-1.700314178E0,4.785599141E0
2.512568709E0,-3.490291901E0,-1.832639008E0,-3.872447205E-1,3.961143996E0
2.522536709E0,-1.671873322E0,-2.495610352E0,1.463806000E0,3.341550454E0
2.532504709E0,3.942800903E-1,-2.530188446E0,2.491868134E0,3.573054318E0
2.542471709E0,1.854343872E0,-1.585652618E0,2.606679382E0,3.570386929E0
2.552439709E0,2.808908844E0,1.296304321E-1,2.073937225E0,3.493993211E0
2.562406708E0,3.622916107E0,1.537303162E0,1.644180908E0,4.265226019E0
2.572374708E0,4.780159607E0,2.192341003E0,1.505569153E0,5.470194093E0
2.582342708E0,5.956563263E0,2.080972595E0,1.472487946E0,6.479144511E0
2.592309709E0,5.485193481E0,9.898915100E-1,1.022673340E0,5.666841580E0
2.602277709E0,3.297941895E0,-6.122268677E-1,5.833369446E-1,3.404632795E0
2.612244708E0,5.240602112E-1,-1.971250763E0,4.073030090E-1,2.079991446E0
2.622212708E0,-1.747765503E0,-2.934048615E0,2.576142883E-1,3.424863595E0
2.632180708E0,-3.002606049E0,-3.464545441E0,4.290078735E-1,4.604646126E0
2.642147709E0,-3.478167114E0,-3.367996216E0,7.765850830E-1,4.903481353E0
2.652115709E0,-3.519630890E0,-2.771187286E0,7.819738770E-1,4.547390870E0
2.662083709E0,-2.989134064E0,-1.936073914E0,7.238946533E-1,3.634188784E0
2.672050708E0,-1.728904724E0,-1.260977783E0,6.427633667E-1,2.234350299E0
2.682018708E0,-4.108955383E-1,-1.039288788E0,6.246510315E-1,1.280291076E0
2.691985709E0,3.185375977E-1,-1.207838287E0,6.767427063E-1,1.420675973E0
2.701953709E0,3.483256531E-1,-1.516197052E0,6.429130554E-1,1.683306703E0
2.711921709E0,9.654922485E-2,-1.789828033E0,4.333488464E-1,1.844070868E0
2.721888708E0,-5.345384216E-1,-1.926194458E0,4.387376404E-1,2.046569601E0
2.731856708E0,-1.011895752E0,-1.895059204E0,5.324427795E-1,2.213295668E0
2.741824708E0,-7.182064819E-1,-1.582808533E0,6.698570251E-1,1.862743094E0
2.751791709E0,-4.805007935E-2,-1.199455719E0,7.683522034E-1,1.425260657E0
2.761759709E0,3.963757324E-1,-9.764195251E-1,6.472540283E-1,1.236707964E0
2.771726708E0,4.198768616E-1,-6.659651184E-1,2.808160400E-1,8.358610926E-1
2.781694708E0,3.637435913E-2,-2.854563904E-1,-4.644841003E-1,5.464008824E-1
2.791662708E0,-5.339396667E-1,-2.733316040E-1,-1.167572021E0,1.312640910E0
2.801629709E0,-9.383985901E-1,-4.987628174E-1,-1.292711792E0,1.673457510E0
2.811597709E0,-7.843688965E-1,-5.526507568E-1,-5.801934814E-1,1.121285825E0
2.821565709E0,8.577163696E-2,-3.558100891E-1,6.972500610E-1,7.874739620E-1
2.831532708E0,1.230441284E0,2.095642090E-3,1.849553833E0,2.221449870E0
2.841500708E0,2.082469482E0,-7.289840698E-2,2.857258301E0,3.536370784E0
2.851467709E0,2.871778107E0,-7.412585449E-1,3.158731384E0,4.332915610E0
2.861435709E0,3.410058746E0,-1.307381287E0,1.815125427E0,4.078287238E0
2.871403709E0,3.969595184E0,-1.358425140E0,-3.541635132E-1,4.210515002E0
2.881370708E0,5.287304993E0,-1.582958221E0,-3.040926361E0,6.301474744E0
2.891338708E0,9.763147430E0,-3.670816498E0,-4.322411499E0,1.129057938E1
2.901306708E0,1.739996658E1,-7.401957550E0,-2.485730896E0,1.907161951E1
2.911273709E0,2.706431946E1,-1.137888748E1,1.561852112E0,2.940060969E1
2.921241709E0,3.668840607E1,-1.371897125E1,5.455405426E0,3.954757591E1
2.931208708E0,4.406970657E1,-1.223495728E1,4.902604980E0,4.599857338E1
2.941176708E0,4.800277771E1,-8.524922333E0,9.699829102E-1,4.876352977E1
2.951144708E0,4.848073380E1,-5.854774933E0,-4.388873291E-1,4.883495225E1
2.961111709E0,4.370311890E1,-5.543123016E0,2.186952209E0,4.410750020E1
2.971079709E0,3.275817902E1,-4.755610657E0,6.044430542E0,3.364891181E1
2.981046708E0,2.029943710E1,-2.865790558E0,7.603588257E0,2.186537117E1
2.991014708E0,1.052835617E1,-2.918480988E0,7.082970886E0,1.302045666E1
3.000982708E0,4.908592529E0,-4.925507355E0,4.980592804E0,8.553432527E0
3.010949709E0,3.153342590E0,-7.477700043E0,1.147513733E0,8.196118300E0
3.020917709E0,3.994892578E0,-8.618777161E0,-3.167712708E0,1.001383494E1
3.030885709E0,6.770869904E0,-7.243586884E0,-6.024971008E0,1.160234915E1
3.040852709E0,1.053419403E1,-4.420307922E0,-6.290069733E0,1.304121709E1
3.050820709E0,1.450453766E1,-1.751657410E0,-5.164859619E0,1.549598952E1
3.060787708E0,1.779768951E1,2.707868958E-1,-4.252207489E0,1.830061054E1
3.070755708E0,1.946252747E1,1.784738617E0,-3.393293610E0,1.983657503E1
3.080723708E0,1.844105164E1,2.788700867E0,-2.210603027E0,1.878126736E1
3.090690709E0,1.358305389E1,2.465822296E0,-7.682025146E-1,1.382641558E1
3.100658709E0,7.615862732E0,4.608915710E-1,9.422904968E-1,7.687762846E0
3.110626709E0,2.862198029E0,-2.467019806E0,1.897454224E0,4.228320802E0
3.120593708E0,-8.204438782E-1,-4.954097900E0,1.746268616E0,5.316546646E0
3.130561708E0,-2.858306122E0,-6.099965057E0,8.268804932E-1,6.786988945E0
3.140528709E0,-2.822081451E0,-5.823639679E0,-4.498146057E-1,6.487006706E0
3.150496709E0,-5.276527405E-1,-4.539460144E0,-1.332229614E0,4.760247006E0
3.160464709E0,2.994822235E0,-2.596350861E0,-1.481618958E0,4.231452794E0
3.170431708E0,6.467899933E0,-3.549119568E-1,-1.071322174E0,6.565624360E0
3.180399708E0,9.482930145E0,1.645228729E0,2.073188782E-1,9.626823091E0
3.190367708E0,1.170655609E1,2.492915955E0,1.806593170E0,1.210462161E1
3.200334709E0,1.305884399E1,1.970053253E0,2.405497742E0,1.342389421E1
3.210302709E0,1.313533493E1,6.382727051E-1,1.707499237E0,1.326122051E1
3.220269708E0,1.180205750E1,-1.182840271E0,2.013313293E-1,1.186289200E1
3.230237708E0,9.946815491E0,-2.932851105E0,-9.714797974E-1,1.041559057E1
3.240205708E0,8.164172516E0,-3.983516235E0,-1.061742096E0,9.146005180E0
3.250172709E0,7.235803070E0,-3.965703278E0,-6.074368286E-1,8.273610340E0
3.260141250E0,7.520211639E0,-3.110232239E0,-1.255888367E-1,8.138974151E0
3.270109250E0,8.275241547E0,-1.977837067E0,5.346881104E-1,8.525101377E0
3.280076250E0,8.814570007E0,-9.852511597E-1,1.089284821E0,8.936101257E0
3.290044250E0,9.122330017E0,-2.192939758E-1,1.698817291E0,9.281754951E0
3.300012250E0,9.221723328E0,2.329156494E-1,2.552192688E0,9.571213003E0
3.309979250E0,9.137598267E0,3.647914124E-1,3.368295593E0,9.745470233E0
3.319947250E0,8.443940735E0,-2.844085693E-2,3.453618164E0,9.122961276E0
3.329914250E0,7.362290039E0,-5.680686951E-1,2.969225464E0,7.958788634E0
3.339882250E0,6.201903076E0,-8.349636841E-1,2.526296539E0,6.748550980E0
3.349850250E0,5.226381683E0,-9.277706909E-1,2.130220184E0,5.719585823E0
3.359817250E0,4.693639526E0,-7.759863281E-1,1.577868805E0,5.012192809E0
3.369785250E0,4.778513031E0,-2.556683350E-1,1.075513458E0,4.904720408E0
3.379753250E0,5.309159546E0,6.559359741E-1,9.999206543E-1,5.442174970E0
3.389720250E0,5.354066162E0,1.428928528E0,1.376088409E0,5.709770619E0
3.399688250E0,4.796924744E0,1.420695648E0,1.564696198E0,5.241863916E0
3.409655250E0,3.924838257E0,5.734574890E-1,1.465751953E0,4.228668540E0
3.419623250E0,3.185375977E0,-9.250762939E-1,9.190887451E-1,3.441963158E0
3.429591250E0,2.957100677E0,-2.353705444E0,8.622070312E-2,3.780450733E0
3.439558250E0,3.681294708E0,-2.801424408E0,-4.108955383E-1,4.644216251E0
3.449526250E0,5.102289734E0,-1.905986481E0,-1.041384430E0,5.545324745E0
3.459494250E0,7.848479004E0,-1.766326904E-2,-1.344055023E0,7.962751947E0
3.469461250E0,1.100511475E1,1.917961578E0,-1.043180695E0,1.121959684E1
3.479429250E0,1.324101517E1,2.844684448E0,-4.797523499E-1,1.355163734E1
3.489397250E0,1.467383560E1,2.218536530E0,2.948867798E-1,1.484352767E1
3.499364250E0,1.521675659E1,4.508624268E-1,6.840774536E-1,1.523879654E1
3.509332250E0,1.464165253E1,-1.652563477E0,5.674699402E-1,1.474554092E1
3.519299250E0,1.316661987E1,-2.862048340E0,4.601431274E-1,1.348194835E1
3.529267250E0,1.253433472E1,-2.629432068E0,3.046165466E-1,1.281078651E1
3.539235250E0,1.349758163E1,-2.016157379E0,-5.953120422E-1,1.366030735E1
3.549202250E0,1.689596466E1,-2.262844391E0,-9.454339600E-1,1.707301766E1
3.559170250E0,2.190215424E1,-3.623365173E0,3.290158081E-1,2.220228337E1
3.569138250E0,2.768747360E1,-5.588179321E0,2.169438629E0,2.832896762E1
3.579105250E0,3.310740280E1,-7.478448486E0,3.686833191E0,3.414117823E1
3.589073250E0,3.603965515E1,-8.352780304E0,4.584815826E0,3.727795888E1
3.599040250E0,3.462434830E1,-7.888296204E0,3.637286224E0,3.569734672E1
3.609008250E0,3.191872467E1,-7.259304199E0,2.316432953E0,3.281567223E1
3.618976250E0,3.084515717E1,-7.907606049E0,2.690205688E0,3.195608175E1
3.628943250E0,3.012231033E1,-9.474996643E0,5.187612305E0,3.200063222E1
3.638911250E0,2.991364426E1,-1.050739975E1,7.625742188E0,3.260956158E1
3.648879250E0,3.018517960E1,-1.080034058E1,9.180109863E0,3.334766620E1
3.658846250E0,2.996558624E1,-1.127620102E1,8.922196198E0,3.323694711E1
3.668814250E0,2.931414093E1,-1.214993408E1,7.338788910E0,3.256988762E1
3.678782250E0,2.881762344E1,-1.327095291E1,5.631589050E0,3.222248295E1
3.688749250E0,2.793610657E1,-1.366822678E1,3.987258453E0,3.135513839E1
3.698717250E0,2.505998749E1,-1.245844254E1,3.030897217E0,2.814963768E1
3.708684250E0,1.874417130E1,-1.104268661E1,2.386187897E0,2.188558379E1
3.718652250E0,1.188857758E1,-9.669292603E0,1.513053589E0,1.539879305E1
3.728620250E0,6.347699890E0,-8.286767578E0,3.887416077E-1,1.044580925E1
3.738587250E0,2.153421936E0,-6.975494385E0,-9.747729492E-1,7.365115766E0
3.748555250E0,-1.027912445E0,-5.506000214E0,-2.578986969E0,6.166345444E0
3.758523250E0,-3.672163696E0,-3.983366547E0,-4.456083527E0,7.014889568E0
3.768490250E0,-5.790408783E0,-2.769690399E0,-6.461313629E0,9.107611794E0
3.778458250E0,-6.269712067E0,-2.208058319E0,-7.435637512E0,9.973641068E0
3.788426250E0,-5.089865570E0,-2.753524017E0,-6.623875580E0,8.795700866E0
3.798393250E0,-3.191812592E0,-3.849395142E0,-4.640649719E0,6.822106742E0
3.808361250E0,-1.173559570E0,-4.545747070E0,-1.853595428E0,5.047462185E0
3.818329250E0,4.878355408E-1,-4.726271667E0,1.022224274E0,4.860099778E0
3.828296250E0,1.766027527E0,-4.304897919E0,3.439846802E0,5.786496810E0
3.838264250E0,2.230960693E0,-3.419638824E0,5.207969971E0,6.617708555E0
3.848231250E0,1.381028137E0,-2.368524628E0,5.985453186E0,6.583524700E0
3.858199250E0,-1.001417542E-1,-1.307231598E0,5.791606293E0,5.938146703E0
3.868167250E0,-1.488953705E0,-3.659889221E-1,4.797523499E0,5.036582447E0
3.878134250E0,-2.583627319E0,1.698966980E-1,3.244802399E0,4.151233265E0
3.888102250E0,-2.914589081E0,3.372486877E-1,1.573078766E0,3.329135472E0
3.898070250E0,-2.118394775E0,4.869374084E-1,1.157093811E-1,2.176716133E0
3.908037250E0,-9.707313538E-1,6.264472961E-1,-6.310876465E-1,1.316444907E0
3.918005250E0,-1.878593445E-1,6.514453125E-1,-7.792794800E-1,1.032932058E0
3.927973250E0,2.124082947E-1,6.143225098E-1,-4.806504822E-1,8.084146929E-1
3.937940250E0,4.405339050E-1,4.260140991E-1,-4.715194702E-2,6.146392765E-1
3.947908250E0,5.498066711E-1,1.341210938E-1,2.664459229E-1,6.255152062E-1
3.957875250E0,5.761518860E-1,-2.282752991E-1,4.661306763E-1,7.754601313E-1
3.967843250E0,4.962181091E-1,-5.403762817E-1,5.119354248E-1,8.946042795E-1
3.977811250E0,2.396516418E-1,-7.469467163E-1,4.924758911E-1,9.262261116E-1
3.987778250E0,-1.221459961E-1,-7.481442261E-1,2.613565063E-1,8.018395418E-1
3.997746250E0,-2.701881409E-1,-5.040019226E-1,-3.128494263E-2,5.727113733E-1
4.007714250E0,-3.481759644E-1,-2.665956116E-1,-6.002517700E-2,4.426090195E-1
4.017681250E0,-3.718267822E-1,-4.326004028E-2,1.420545959E-1,4.003824363E-1
4.027649250E0,-2.686912537E-1,1.883084106E-1,4.992118835E-1,5.973839234E-1
4.037617250E0,9.340576172E-2,3.977229309E-1,9.145980835E-1,1.001697470E0
4.047584250E0,6.111790466E-1,5.718109131E-1,1.306483154E0,1.551581703E0
4.057552250E0,1.181193695E0,7.740403748E-1,1.598376160E0,2.132876788E0
4.067520250E0,1.446292419E0,8.972341919E-1,1.771116943E0,2.456348140E0
4.077487250E0,1.328786774E0,9.060658264E-1,1.604214020E0,2.271592435E0
4.087455250E0,8.876541138E-1,8.297245789E-1,1.169368286E0,1.686355506E0
4.097423250E0,3.730242920E-1,6.563850403E-1,6.406677246E-1,9.901735085E-1
4.107390250E0,-9.415420532E-2,3.583547974E-1,1.902543640E-1,4.165091814E-1
4.117358250E0,-3.291654968E-1,-9.969268799E-2,-2.462379456E-1,4.229913500E-1
4.127325250E0,-7.379653931E-2,-5.285508728E-1,-6.105802917E-1,8.109378811E-1
4.137293250E0,7.620652771E-1,-8.033793640E-1,-6.842271423E-1,1.301663809E0
4.147261250E0,2.182012482E0,-7.499404907E-1,-6.114784241E-1,2.386942620E0
4.157228250E0,4.115541687E0,-5.162763977E-1,-1.862127686E-1,4.151975420E0
4.167196250E0,5.851032715E0,-1.800755310E-1,5.963598633E-1,5.884101980E0
4.177164250E0,6.541846161E0,2.294728088E-1,1.255588989E0,6.665201623E0
4.187131250E0,7.000642090E0,4.373904419E-1,1.525477753E0,7.178257619E0
4.197099250E0,8.776100006E0,-2.772235107E-1,1.329235840E0,8.880520937E0
4.207067250E0,1.244541962E1,-2.102228394E0,1.559756470E0,1.271773069E1
4.217034250E0,1.758049118E1,-4.373605042E0,3.791914673E0,1.850893590E1
4.227002250E0,2.052621552E1,-6.464906158E0,5.802533569E0,2.228878487E1
4.236970250E0,2.117870865E1,-7.164850616E0,5.618715820E0,2.305304214E1
4.246937250E0,2.311104034E1,-7.584727478E0,1.924398193E0,2.439982756E1
4.256905250E0,2.789913345E1,-1.106469086E1,-4.642296295E0,3.037005015E1
4.266872750E0,3.168925186E1,-1.599349136E1,-1.249361938E1,3.763098424E1
4.276839750E0,3.684318420E1,-1.998030075E1,-1.423300232E1,4.426297545E1
4.286807750E0,4.269421692E1,-1.952315140E1,-2.946772156E0,4.703863375E1
4.296774750E0,4.503744415E1,-1.126707001E1,1.108699448E1,4.773090916E1
4.306742750E0,4.296500381E1,-1.477427673E-1,1.662921936E1,4.607107897E1
4.316710750E0,3.515559357E1,8.079299011E0,1.317051178E1,3.840121368E1
4.326677750E0,2.544753159E1,9.408534851E0,9.894125061E0,2.887890411E1
4.336645750E0,1.659269531E1,3.051853638E0,1.030966095E1,1.977170851E1
4.346613750E0,7.244485016E0,-6.391408997E0,9.458381195E0,1.352012008E1
4.356580750E0,-8.436456299E-1,-1.364517471E1,4.104165344E0,1.427398697E1
4.366548750E0,-5.686225433E0,-1.485391113E1,-3.490441589E0,1.628358124E1
4.376516750E0,-6.510561218E0,-1.056907150E1,-7.369924164E0,1.443635903E1
4.386483750E0,-3.062331848E0,-5.837261353E0,-8.694669342E0,1.091094732E1
4.396451750E0,2.760559387E0,-2.804567871E0,-8.882378998E0,9.715088560E0
4.406419750E0,1.010294083E1,-4.805007935E-2,-8.529862061E0,1.322233977E1
4.416386750E0,1.618165009E1,2.409239960E0,-7.550897827E0,1.801849868E1
4.426354750E0,1.764231262E1,3.486250305E0,-5.336851959E0,1.875865466E1
4.436322750E0,1.576222229E1,3.840563507E0,-2.877765656E0,1.647662328E1
4.446289750E0,1.269375320E1,3.323688354E0,-8.876541138E-2,1.312197218E1
4.456257750E0,9.664053497E0,1.642534332E0,2.372416534E0,1.008564372E1
4.466224750E0,7.426656189E0,-4.498146057E-1,4.065395966E0,8.478502208E0
4.476192750E0,5.580245819E0,-2.136656799E0,5.207670593E0,7.926176801E0
4.486160750E0,4.053570557E0,-3.005150757E0,5.685776367E0,7.602000936E0
4.496127750E0,3.118614807E0,-3.422183533E0,5.550757141E0,7.228278031E0
4.506095750E0,2.786605225E0,-3.707939301E0,5.010829926E0,6.828059686E0
4.516063750E0,3.323239288E0,-3.642824707E0,4.129163361E0,6.431491372E0
4.526030750E0,4.996459808E0,-2.949167175E0,2.911146240E0,6.491299568E0
4.535998750E0,6.728208618E0,-1.913770294E0,1.889969788E0,7.245915660E0
4.545966750E0,7.903863831E0,-8.551716614E-1,1.244062958E0,8.046743109E0
4.555933750E0,8.130043488E0,4.924758911E-2,1.175655212E0,8.214754872E0
4.565901750E0,7.163353729E0,6.348298645E-1,1.558708649E0,7.358411395E0
4.575869750E0,5.700296173E0,8.884025574E-1,1.891766052E0,6.071360174E0
4.585836750E0,4.181853790E0,8.927435303E-1,2.110461273E0,4.768536350E0
4.595804750E0,3.039429474E0,7.463479614E-1,2.312990112E0,3.891669316E0
4.605772750E0,2.633473663E0,7.292834473E-1,2.247127075E0,3.537883262E0
4.615739750E0,2.856659546E0,7.611671448E-1,1.693278809E0,3.406915365E0
4.625707750E0,3.851041718E0,9.734257507E-1,8.575666809E-1,4.063680673E0
4.635675750E0,5.676196289E0,1.884431305E0,-1.202000427E-1,5.982034245E0
4.645642750E0,7.510781250E0,3.110830994E0,-5.484594727E-1,8.148000506E0
4.655610750E0,8.488997040E0,4.279001770E0,-2.249821472E-1,9.509129500E0
4.665578750E0,8.411757660E0,5.172942810E0,9.463320923E-1,9.920309908E0
4.675545750E0,7.622149658E0,5.454357605E0,2.316432953E0,9.654690255E0
4.685513750E0,7.288493500E0,5.058880005E0,3.152444458E0,9.415535591E0
4.695481750E0,8.280330963E0,3.835025024E0,3.542832642E0,9.788920314E0
4.705448750E0,1.085856949E1,1.746567993E0,3.664379883E0,1.159252824E1
4.715416750E0,1.453597229E1,-1.848655701E-1,3.798950043E0,1.502533484E1
4.725384750E0,1.798105820E1,-5.730084229E-1,3.750450897E0,1.837696043E1
4.735351750E0,1.924113785E1,8.405021667E-1,3.284619598E0,1.953756780E1
4.745319750E0,1.943094315E1,3.037932587E0,2.803220673E0,1.986576533E1
4.755286750E0,1.984288651E1,3.905827789E0,2.415077820E0,2.036733258E1
4.765254750E0,2.164962936E1,2.482437744E0,1.746268616E0,2.186134495E1
4.775222750E0,2.564018097E1,-8.382568359E-2,8.884025574E-1,2.565570436E1
4.785189750E0,2.996034714E1,-2.384092255E0,6.402186584E-1,3.006187247E1
4.795157750E0,3.340184052E1,-2.929557953E0,1.550475769E0,3.356589392E1
4.805125750E0,3.657703766E1,-1.354982300E0,2.859054565E0,3.671361946E1
4.815092750E0,3.951108627E1,9.117539978E-1,3.770658875E0,3.970107180E1
4.825060750E0,4.233750870E1,1.803449707E0,3.447630615E0,4.251591738E1
4.835028750E0,4.431130417E1,-1.427281952E0,2.274520111E0,4.439259232E1
4.844995750E0,4.658432739E1,-8.032446442E0,1.481618958E0,4.729497805E1
4.854963750E0,4.741360291E1,-1.464584381E1,2.651136932E0,4.969485897E1
4.864931750E0,4.426070938E1,-1.801638474E1,5.140011292E0,4.806266982E1
4.874898750E0,3.891592392E1,-1.894789764E1,6.551875305E0,4.377669505E1
4.884866750E0,3.295457062E1,-1.915895874E1,7.823480988E0,3.891370298E1
4.894834750E0,2.732343063E1,-1.914563644E1,1.017823425E1,3.488153823E1
4.904801750E0,2.187056992E1,-1.965248245E1,1.074720108E1,3.130565805E1
4.914769750E0,1.397823212E1,-1.980097366E1,7.458539886E0,2.535940355E1
4.924737750E0,7.339088287E0,-1.765458710E1,1.495090942E0,1.917764217E1
4.934704750E0,3.187172241E0,-1.444466217E1,-4.492308197E0,1.545920972E1
4.944672750E0,4.032614136E-1,-1.238284973E1,-9.656269684E0,1.570799578E1
4.954640750E0,3.025658112E0,-1.022867935E1,-1.114237930E1,1.542508038E1
4.964607750E0,8.115373993E0,-8.383167114E0,-9.041647797E0,1.476103590E1
4.974575750E0,1.192210785E1,-5.376968536E0,-5.823489990E0,1.431647589E1
4.984543750E0,1.090138046E1,-8.722361755E-1,-1.823807373E0,1.108725238E1
4.994510750E0,5.994135132E0,3.400179291E0,9.749226379E-1,6.959981993E0
5.004478750E0,1.539847870E0,4.613705750E0,1.376986542E0,5.055047393E0
5.014446750E0,-1.365310822E0,1.056952057E0,4.656816101E-1,1.788317827E0
5.024413750E0,-3.490441589E0,-5.355862427E0,-7.963439941E-2,6.393339226E0
5.034381750E0,-6.110742645E0,-1.107172623E1,1.910028076E-1,1.264756021E1
5.044348750E0,-9.190588074E0,-1.330403412E1,2.350112915E-1,1.617156341E1
5.054316750E0,-1.107561813E1,-1.176942535E1,-7.688012695E-1,1.617960894E1
5.064284750E0,-1.065529221E1,-8.492290192E0,-1.879790955E0,1.375455774E1
5.074252750E0,-7.785310364E0,-4.947810974E0,-2.185155945E0,9.479809987E0
5.084219750E0,-3.691772919E0,-1.925895081E0,-1.293160858E0,4.360105979E0
5.094187750E0,-1.691482544E-2,1.939965820E-1,9.719288635E-1,9.912449248E-1
5.104154750E0,2.548600159E0,1.048569489E0,3.902834015E0,4.777758270E0
5.114122750E0,3.790567474E0,6.264472961E-1,5.703140259E0,6.876528689E0
5.124090750E0,3.365002441E0,-4.195774841E-1,5.836063843E0,6.749735393E0
5.134058750E0,1.584754486E0,-1.454974365E0,5.267097015E0,5.689526180E0
5.144025750E0,-4.182302856E-1,-2.168839874E0,4.505181427E0,5.017513594E0
5.153993750E0,-1.745520172E0,-2.533930664E0,3.626808014E0,4.756194030E0
5.163960750E0,-1.853296051E0,-2.683769073E0,2.690056000E0,4.227732723E0
5.173928750E0,-7.179071045E-1,-2.442620544E0,1.843566284E0,3.143329823E0
5.183896750E0,9.512718201E-1,-1.569186859E0,9.160949707E-1,2.050974273E0
5.193863750E0,2.102378082E0,-3.927832031E-1,3.556604004E-1,2.168125127E0
5.203831750E0,2.540666656E0,6.453080750E-1,-1.842668152E-1,2.627805897E0
5.213799750E0,2.303709412E0,1.201701050E0,-8.177494812E-1,2.723945058E0
5.223766750E0,1.479822693E0,1.182840271E0,-1.363364868E0,2.334041575E0
5.233734750E0,5.342390442E-1,5.361849976E-1,-1.604513397E0,1.774082566E0
5.243702750E0,-4.041595459E-3,-4.132905579E-1,-1.700014801E0,1.749535865E0
5.253669750E0,-3.183879089E-1,-1.243164825E0,-1.472338257E0,1.953102554E0
5.263638209E0,-6.611750793E-1,-1.681453400E0,-9.807604980E-1,2.055803778E0
5.273606209E0,-1.194066925E0,-1.561403046E0,-5.113366699E-1,2.031068803E0
5.283573208E0,-1.747316437E0,-1.065783691E0,-7.214996338E-2,2.047978326E0
5.293541208E0,-1.956880646E0,-5.911207581E-1,7.589218140E-2,2.045620990E0
5.303509208E0,-1.445843353E0,-1.922003174E-1,-2.544708252E-2,1.458784260E0
5.313476209E0,2.315684509E-1,6.158193970E-1,-1.893562317E-1,6.846263650E-1
5.323444209E0,1.716181183E0,1.671873322E0,1.631607056E-1,2.401470315E0
5.333412209E0,2.203867035E0,2.368824005E0,7.463479614E-1,3.320450625E0
5.343379208E0,2.100581818E0,2.339335327E0,1.343456268E0,3.419036193E0
5.353347208E0,1.505120087E0,1.533411255E0,1.661544800E0,2.716149420E0
5.363315208E0,4.412823486E-1,2.243833923E-1,1.538800049E0,1.616472582E0
5.373282209E0,-4.766088867E-1,-8.610095215E-1,1.119671631E0,1.490690440E0
5.383250209E0,-5.851332092E-1,-1.397793274E0,1.048719177E0,1.842829027E0
5.393218209E0,7.571255493E-1,-1.134640503E0,1.047970734E0,1.720142676E0
5.403185208E0,2.571203156E0,-1.196012878E-1,9.906399536E-1,2.758035107E0
5.413153208E0,4.027375031E0,1.068777466E0,9.743238831E-1,4.279175380E0
5.423121208E0,5.830375671E0,1.615889740E0,1.451232147E0,6.221772647E0
5.433088209E0,7.564519501E0,1.173409882E0,2.712509308E0,8.121363972E0
5.443056209E0,9.294921112E0,5.792953491E-2,4.418661346E0,1.029191345E1
5.453024209E0,1.238494537E1,-1.365011444E0,5.936804352E0,1.380202065E1
5.462991208E0,1.757270737E1,-3.774101715E0,6.729555817E0,1.919194647E1
5.472959208E0,2.261886383E1,-7.682174835E0,6.169570312E0,2.467169246E1
5.482927208E0,2.490026962E1,-1.098236206E1,3.096909943E0,2.739026387E1
5.492894209E0,2.412742676E1,-1.157408157E1,-3.580105133E0,2.699831919E1
5.502862209E0,2.507854889E1,-1.009994705E1,-9.313332825E0,2.859511695E1
5.512830209E0,3.175885712E1,-8.520132294E0,-8.303083649E0,3.391399206E1
5.522797209E0,4.030533463E1,-7.498506775E0,-3.803590393E-1,4.099868627E1
5.532765209E0,4.745057602E1,-5.002896423E0,7.931256866E0,4.836828478E1
5.542733209E0,4.788452362E1,-4.834945679E-2,1.127350662E1,4.919371801E1
5.552700209E0,4.145359680E1,2.893333282E0,1.070828201E1,4.291199563E1
5.562668208E0,3.161859879E1,1.360071716E0,9.509574738E0,3.304568952E1
5.572636208E0,2.162358353E1,-2.774181061E0,8.104895782E0,2.325864959E1
5.582603209E0,1.256053024E1,-7.972870331E0,5.464835815E0,1.584922748E1
5.592571209E0,4.494254150E0,-1.247640518E1,8.340655518E-1,1.328738770E1
5.602539209E0,-3.002755737E-1,-1.420935150E1,-5.354066162E0,1.518755609E1
5.612506208E0,-6.171665955E-1,-1.267653900E1,-8.847202148E0,1.547089272E1
5.622474208E0,2.307451630E0,-9.248966675E0,-7.921527100E0,1.239428534E1
5.632442208E0,7.928562469E0,-5.953719177E0,-5.402116241E0,1.129122379E1
5.642409209E0,1.331331482E1,-3.167563019E0,-2.822829895E0,1.397305176E1
5.652377209E0,1.659209656E1,-4.763095093E-1,-1.706002350E0,1.668637117E1
5.662345209E0,1.770188873E1,1.198258209E0,-1.346150665E0,1.779339229E1
5.672312208E0,1.720971222E1,1.367855530E0,-5.153782654E-1,1.727167734E1
5.682280208E0,1.548125656E1,6.011499023E-1,8.714877319E-1,1.551741527E1
5.692248208E0,1.226429626E1,-5.695655823E-1,2.435285797E0,1.251670822E1
5.702215209E0,8.632698212E0,-1.239123230E0,3.719615021E0,9.481267884E0
5.712183209E0,5.960904236E0,-1.380130005E0,5.013224945E0,7.910092445E0
5.722151209E0,4.098926239E0,-1.688488770E0,5.850583649E0,7.340403236E0
5.732118208E0,3.265758820E0,-2.138303375E0,5.876180420E0,7.054574283E0
5.742086208E0,3.401376801E0,-2.542013855E0,4.993615723E0,6.554952064E0
5.752054208E0,3.258424072E0,-2.729723511E0,3.936813354E0,5.793722229E0
5.762022208E0,2.997666321E0,-2.647394714E0,2.924169159E0,4.954338242E0
5.771989209E0,2.803669739E0,-2.418370972E0,1.956132202E0,4.187545266E0
5.781957209E0,2.830314331E0,-2.194436646E0,1.185235291E0,3.772401635E0
5.791925209E0,3.101699982E0,-1.747615814E0,9.172924805E-1,3.676428879E0
5.801892208E0,3.543281708E0,-9.460327148E-1,1.246457977E0,3.873432670E0
5.811860208E0,3.888613586E0,-2.574645996E-2,2.189646606E0,4.462794054E0
5.821828208E0,4.319866791E0,1.074615326E0,3.129093018E0,5.441256316E0
5.831795209E0,4.949008484E0,2.426753540E0,3.867357788E0,6.733370180E0
5.841763209E0,5.461842041E0,3.835174713E0,4.315675507E0,7.947662464E0
5.851731209E0,5.562133484E0,4.846322021E0,4.253554688E0,8.515685146E0
5.861698208E0,5.427114258E0,5.163961487E0,3.779041443E0,8.390543584E0
5.871666208E0,5.673352203E0,5.079537048E0,3.009641418E0,8.188196585E0
5.881634208E0,5.735772400E0,4.837041321E0,2.088157654E0,7.788225481E0
5.891601209E0,5.817652130E0,4.879852295E0,1.165626068E0,7.682233976E0
5.901569209E0,6.505322113E0,5.244194641E0,4.273612976E-1,8.366805299E0
5.911537209E0,7.964338074E0,5.606740723E0,3.703298950E-1,9.746967052E0
5.921504208E0,1.033899994E1,5.907315674E0,1.471140747E0,1.199814791E1
5.931472208E0,1.318892349E1,5.822292480E0,3.438200226E0,1.482120148E1
5.941440208E0,1.622191635E1,5.505102081E0,5.185067596E0,1.789809054E1
5.951407209E0,1.898457138E1,5.443729706E0,5.541476440E0,2.051234030E1
5.961375209E0,2.022324554E1,5.976920929E0,3.767814789E0,2.142194371E1
5.971343209E0,2.026635590E1,6.744674377E0,4.206253052E-1,2.136335038E1
5.981310208E0,2.039044785E1,6.791526947E0,-2.688110046E0,2.165920445E1
5.991278208E0,2.291075684E1,5.613027649E0,-2.934797058E0,2.377018914E1
6.001246208E0,2.834146362E1,3.207679596E0,6.993457031E-1,2.853098058E1
6.011213209E0,3.374417862E1,3.942800903E-1,4.595593414E0,3.405795834E1
6.021181209E0,3.786690536E1,-1.830393677E0,6.606362000E0,3.848242302E1
6.031149209E0,3.970433441E1,-3.080893250E0,6.612948303E0,4.036901237E1
6.041116208E0,3.995446426E1,-3.605103149E0,4.856201477E0,4.040963593E1
6.051084208E0,4.026776276E1,-4.525539093E0,2.807711334E0,4.061842518E1
6.061052208E0,4.195804779E1,-6.766828308E0,2.592608643E0,4.257921276E1
6.071019209E0,4.514926163E1,-1.020892044E1,4.637506256E0,4.652079477E1
6.080987209E0,4.722589325E1,-1.357497070E1,6.837631073E0,4.961167223E1
6.090955209E0,4.585549301E1,-1.504102203E1,8.274493103E0,4.896351518E1
6.100922209E0,4.167663300E1,-1.557196793E1,9.362879791E0,4.546527731E1
6.110890209E0,3.606465317E1,-1.733619919E1,8.898395691E0,4.099249268E1
6.120858209E0,2.921729233E1,-1.953722214E1,7.195087738E0,3.587648962E1
6.130825209E0,2.226035934E1,-2.115445908E1,6.239025879E0,3.133624389E1
6.140793208E0,1.483954102E1,-2.121972336E1,5.310506744E0,2.643274709E1
6.150761208E0,7.975864105E0,-1.941028610E1,3.456462250E0,2.126783360E1
6.160728209E0,2.718796234E0,-1.674537781E1,1.357227631E0,1.701886006E1
6.170696209E0,-1.211430817E0,-1.385788239E1,-3.245251465E-1,1.391451707E1
6.180664209E0,-3.773952026E0,-1.096454910E1,-1.620081024E0,1.170848895E1
6.190631208E0,-4.358785858E0,-8.659193115E0,-2.472558289E0,1.000470809E1
6.200599208E0,-3.760180664E0,-7.738607483E0,-3.268752594E0,9.203789867E0
6.210567208E0,-2.481240234E0,-8.097111969E0,-4.210294647E0,9.457608385E0
6.220534209E0,-1.325044556E0,-9.077722778E0,-5.466482391E0,1.067910219E1
6.230502209E0,-1.934577026E0,-9.437873840E0,-6.955885162E0,1.188277700E1
6.240470209E0,-3.764671326E0,-8.920699310E0,-7.730374603E0,1.238992808E1
6.250437208E0,-5.960754547E0,-8.457113342E0,-7.452103271E0,1.275096875E1
6.260405459E0,-8.063432007E0,-7.955805817E0,-6.439908142E0,1.303020333E1
6.270373459E0,-9.433682556E0,-7.470964050E0,-4.925058289E0,1.300253320E1
6.280341459E0,-9.534722443E0,-6.949448547E0,-3.049907684E0,1.218637370E1
6.290308459E0,-8.095166016E0,-6.505322113E0,-7.165599060E-1,1.040982165E1
6.300276459E0,-5.886808319E0,-6.038293304E0,1.650168457E0,8.592936294E0
6.310244459E0,-3.451073456E0,-5.323230286E0,3.565585327E0,7.277368164E0
6.320211458E0,-1.206191711E0,-4.452790375E0,4.965773621E0,6.777989984E0
6.330179458E0,5.990542603E-1,-3.583098907E0,5.861361237E0,6.895869730E0
6.340147458E0,1.535656586E0,-2.602338409E0,6.184389496E0,6.883101030E0
6.350114459E0,1.724114685E0,-1.857487335E0,5.943390656E0,6.461170415E0
6.360082459E0,1.502276001E0,-1.461860046E0,5.443879395E0,5.833497308E0
6.370050459E0,9.852511597E-1,-1.306632843E0,4.945116577E0,5.208856611E0
6.380017458E0,3.514691162E-1,-1.330732727E0,4.678820343E0,4.877062634E0
6.389985458E0,-3.971241760E-1,-1.316063232E0,4.313579865E0,4.527328273E0
6.399953458E0,-1.391506348E0,-1.157842255E0,3.634442139E0,4.060302730E0
6.409920459E0,-2.297272797E0,-9.382489014E-1,2.654879150E0,3.634027601E0
6.419888459E0,-2.859204254E0,-7.946974182E-1,1.426234131E0,3.292527411E0
6.429856459E0,-2.971919861E0,-7.824229431E-1,2.689906311E-1,3.084939105E0
6.439823458E0,-2.491868134E0,-9.134005737E-1,-5.177732849E-1,2.704033391E0
6.449791458E0,-9.219328308E-1,-1.010249176E0,-6.405180359E-1,1.510240675E0
6.459759458E0,1.283131714E0,-9.032217407E-1,-2.453398132E-1,1.588215392E0
6.469726459E0,3.047063599E0,-6.433621216E-1,2.896476746E-1,3.127683994E0
6.479694459E0,4.019591217E0,-5.104385376E-2,7.072792053E-1,4.081661782E0
6.489662459E0,3.887865143E0,9.166937256E-1,6.559359741E-1,4.047971684E0
6.499629458E0,2.664608917E0,2.013612671E0,4.522096252E-1,3.370351646E0
6.509597458E0,1.337468719E0,2.984344025E0,4.062551880E-1,3.295477979E0
6.519565458E0,4.819976807E-1,3.605103149E0,6.411167908E-1,3.693253474E0
6.529533458E0,2.694396973E-1,3.660188599E0,1.172811127E0,3.852929310E0
6.539500459E0,6.515950012E-1,2.980452118E0,1.773811340E0,3.529033514E0
6.549468459E0,1.770967255E0,1.908231812E0,2.012265472E0,3.290423376E0
6.559436459E0,3.436853027E0,9.674382019E-1,2.232457581E0,4.210909908E0
6.569403458E0,5.452860718E0,4.005670166E-1,2.699785767E0,6.097785428E0
6.579371458E0,7.152426453E0,1.603166199E-1,3.136427765E0,7.811535361E0
6.589339458E0,8.058641968E0,-8.277786255E-2,3.395538940E0,8.745184231E0
6.599306459E0,9.244925079E0,-6.119274902E-1,3.367098083E0,9.858014226E0
6.609274459E0,1.138143219E1,-2.372117157E0,2.945724335E0,1.199338277E1
6.619242459E0,1.452115311E1,-5.970783691E0,2.187550964E0,1.585242961E1
6.629209458E0,1.804138275E1,-1.057071808E1,1.168769531E0,2.094272175E1
6.639177458E0,2.048609894E1,-1.418899384E1,1.923500061E-1,2.492077034E1
6.649145458E0,2.115221375E1,-1.433449127E1,-2.761756897E-1,2.555327884E1
6.659112459E0,2.167178329E1,-1.308189606E1,-6.333329773E-1,2.532199254E1
6.669080459E0,2.432606369E1,-1.283191589E1,-2.362088013E-1,2.750402216E1
6.679048459E0,2.914544174E1,-1.418959259E1,2.456840973E0,3.250903536E1
6.689015458E0,3.330633911E1,-1.525208313E1,6.428831177E0,3.719231285E1
6.698983458E0,3.472643600E1,-1.291334656E1,9.356742554E0,3.821293640E1
6.708951458E0,3.330364471E1,-7.993078308E0,1.065544189E1,3.586865615E1
6.718918459E0,3.085473724E1,-3.159479828E0,1.047327072E1,3.273662357E1
6.728886459E0,2.801110062E1,-3.306623840E-1,8.045619049E0,2.914554994E1
6.738854459E0,2.447694992E1,3.550616455E-1,4.425547028E0,2.487634645E1
6.748821458E0,2.078173416E1,-4.043092346E-1,7.069798279E-1,2.079768644E1
6.758789458E0,1.689521622E1,-2.150428162E0,-1.362616425E0,1.708594147E1
6.768757458E0,1.320134766E1,-3.611689453E0,-2.138003998E0,1.385247060E1
6.778725458E0,1.072250244E1,-4.233197021E0,-2.615511017E0,1.182086771E1
6.788692459E0,9.484427032E0,-4.352049866E0,-2.664608917E0,1.077008983E1
6.798660459E0,9.091045074E0,-4.254452820E0,-2.499202881E0,1.034376548E1
6.808628459E0,8.746611328E0,-4.042493591E0,-2.685116272E0,1.000274030E1
6.818595458E0,8.265811157E0,-4.063000946E0,-2.639161835E0,9.581063927E0
6.828563458E0,7.245532837E0,-4.094884644E0,-1.741328888E0,8.502826156E0
6.838531458E0,5.801186371E0,-3.915856934E0,-4.352947998E-1,7.012644323E0
6.848498459E0,4.966072998E0,-3.700305176E0,8.195457458E-1,6.247062881E0
6.858466459E0,5.631589050E0,-3.376827850E0,1.992805939E0,6.862145224E0
6.868434459E0,6.654412079E0,-3.024759979E0,2.931803284E0,7.875648770E0
6.878401459E0,7.275021515E0,-3.091371460E0,3.267106018E0,8.553157153E0
6.888369459E0,7.349117432E0,-3.464096375E0,3.543132019E0,8.863592681E0
6.898337459E0,6.556365967E0,-3.666176147E0,3.387904816E0,8.240429678E0
6.908304458E0,4.984784088E0,-3.556454315E0,2.967129822E0,6.804432311E0
6.918272458E0,3.399580536E0,-3.039728851E0,2.394869843E0,5.150970867E0
6.928240458E0,2.730471954E0,-2.188149719E0,1.904489594E0,3.983786754E0
6.938207459E0,2.858156433E0,-1.346450043E0,2.124831390E0,3.807478739E0
6.948175459E0,3.307971039E0,-9.235794067E-1,3.216660919E0,4.705590163E0
6.958143459E0,3.773053894E0,-1.056952057E0,4.241729279E0,5.774543325E0
6.968111459E0,4.246818695E0,-1.220561829E0,4.699327698E0,6.450497734E0
6.978078458E0,4.956941986E0,-1.057550812E0,4.696782990E0,6.910098264E0
6.988046458E0,5.714516602E0,-6.791377258E-1,4.166286163E0,7.104566731E0
6.998014458E0,6.571783905E0,-5.134323120E-2,3.420087891E0,7.408642318E0
7.007981459E0,6.518045654E0,3.595523071E-1,2.732567596E0,7.076801727E0
7.017949459E0,5.445376282E0,4.513114929E-1,2.186054077E0,5.885119994E0
7.027917459E0,3.878883820E0,5.731581116E-1,2.044747925E0,4.422131158E0
7.037884458E0,2.953059082E0,9.824070740E-1,1.858235779E0,3.624737482E0
7.047852458E0,3.622017975E0,1.688039703E0,2.325414276E0,4.623423386E0
7.057820458E0,5.541626129E0,2.076781311E0,3.437900848E0,6.844107174E0
7.067787459E0,8.269403687E0,2.241588593E0,4.623285828E0,9.735631905E0
7.077755459E0,1.036040543E1,2.596799927E0,4.857698364E0,1.173365262E1
7.087723459E0,1.054841446E1,2.832559662E0,3.656296692E0,1.151785342E1
7.097690458E0,9.351653137E0,2.441572723E0,2.145488434E0,9.900394658E0
7.107658458E0,7.993826752E0,1.034947815E0,1.633852386E0,8.224466958E0
7.117626458E0,7.581434326E0,-6.481521606E-1,2.687062225E0,8.069606624E0
7.127594458E0,9.693242798E0,-2.034269714E0,4.506079559E0,1.088126657E1
7.137561459E0,1.324041641E1,-3.400478668E0,5.069358215E0,1.457978994E1
7.147529459E0,1.779529449E1,-4.187541962E0,3.935765533E0,1.870022097E1
7.157497459E0,2.170681046E1,-3.956123199E0,1.783840485E0,2.213636415E1
7.167464458E0,2.293740143E1,-3.555855560E0,-4.385879517E-1,2.321553041E1
7.177432458E0,2.335877518E1,-3.509302368E0,-1.610201569E0,2.367573293E1
7.187400458E0,2.392534698E1,-3.938609619E0,-7.450007629E-1,2.425881077E1
7.197367459E0,2.467633530E1,-5.135520630E0,5.010081482E-1,2.521003977E1
7.207335459E0,2.514770508E1,-7.435787201E0,6.069877625E-1,2.623102049E1
7.217303459E0,2.573134140E1,-1.016655853E1,5.998027039E-1,2.767346393E1
7.227270458E0,2.622651169E1,-1.255304581E1,1.520687714E0,2.911565499E1
7.237238458E0,2.681119583E1,-1.402882690E1,2.280956726E0,3.034552636E1
7.247206458E0,2.848621262E1,-1.371013962E1,1.492097168E0,3.164899037E1
7.257173459E0,3.129362457E1,-1.186432800E1,1.042881317E0,3.348344097E1
7.267140708E0,3.383069870E1,-9.399254150E0,2.063758392E0,3.517273449E1
7.277108708E0,3.421854218E1,-7.821235657E0,2.855911102E0,3.521699283E1
7.287075709E0,3.120635605E1,-7.991132355E0,1.880988464E0,3.226814175E1
7.297043709E0,2.525652878E1,-9.525292053E0,6.436614990E-1,2.700069878E1
7.307011709E0,1.927137497E1,-1.088326813E1,8.168513489E-1,2.214720444E1
7.316979709E0,1.450753143E1,-1.116782639E1,2.513423309E0,1.847988396E1
7.326946708E0,1.097457825E1,-1.017030075E1,4.391268311E0,1.559357632E1
7.336914708E0,8.624465332E0,-8.674311676E0,5.165458374E0,1.327806633E1
7.346882708E0,6.522087250E0,-7.295528870E0,4.924908600E0,1.095523109E1
7.356849709E0,4.296515350E0,-6.068231049E0,4.170776825E0,8.525189238E0
7.366817709E0,1.196461945E0,-4.796026611E0,2.707569580E0,5.635984872E0
7.376785709E0,-1.936373291E0,-2.440824280E0,-5.445675659E-1,3.162865555E0
7.386752708E0,-3.713178406E0,4.861889648E-1,-4.932243347E0,6.192826335E0
7.396720708E0,-4.584067383E0,5.264552307E-1,-7.869435425E0,9.122436231E0
7.406688708E0,-4.657414856E0,-1.934277649E0,-8.409063263E0,9.805370372E0
7.416655709E0,-3.642824707E0,-4.442761230E0,-7.612419891E0,9.537150298E0
7.426623709E0,-2.181413727E0,-5.743107147E0,-5.730383606E0,8.401139317E0
7.436591709E0,-1.191971283E0,-5.414091339E0,-2.864143982E0,6.239911964E0
7.446559709E0,-6.198609924E-1,-3.999083862E0,-1.871109009E-2,4.046881453E0
7.456526708E0,1.586700439E-1,-2.060764618E0,2.127376099E0,2.966084297E0
7.466494708E0,1.362317047E0,4.790039063E-2,3.386258240E0,3.650335197E0
7.476462708E0,2.838547211E0,1.713636475E0,3.956422577E0,5.162090646E0
7.486429709E0,3.552113342E0,2.176623688E0,3.891607361E0,5.700860262E0
7.496397709E0,3.298091583E0,1.354533234E0,3.186124420E0,4.781585218E0
7.506365709E0,2.203567657E0,-1.466949463E-2,2.476899261E0,3.315261010E0
7.516332708E0,1.757345581E-1,-1.202898560E0,2.103425903E0,2.429454282E0
7.526300708E0,-1.592238922E0,-1.989961853E0,1.368753662E0,2.892863555E0
7.536268708E0,-2.669398956E0,-2.502945099E0,7.126679993E-1,3.728045149E0
7.546235709E0,-2.930456085E0,-2.822380829E0,5.390290833E-1,4.104139223E0
7.556203709E0,-2.639311523E0,-2.877316589E0,5.957611084E-1,3.949664210E0
7.566171709E0,-2.150278473E0,-2.765648804E0,5.682183838E-1,3.548997457E0
7.576139709E0,-1.403182068E0,-2.629132690E0,6.246510315E-1,3.044905176E0
7.586106709E0,-4.513114929E-1,-2.542911987E0,9.355545044E-1,2.746879260E0
7.596074709E0,4.718188477E-1,-2.402803345E0,1.449585571E0,2.845588738E0
7.606042709E0,1.034498749E0,-2.102827148E0,2.057621155E0,3.118633434E0
7.616009708E0,8.291258240E-1,-1.635798340E0,2.268233185E0,2.916876347E0
7.625977708E0,3.532653809E-2,-1.277742920E0,1.965113525E0,2.344258113E0
7.635945708E0,-6.782395935E-1,-1.240320740E0,1.608704681E0,2.141573075E0
7.645912709E0,-8.746311951E-1,-1.452878723E0,1.127754822E0,2.036582247E0
7.655880709E0,-6.996450806E-1,-1.770069122E0,8.280780029E-1,2.075659200E0
7.665848709E0,-3.174897766E-1,-1.890418854E0,5.990542603E-1,2.008319996E0
7.675815708E0,3.606001282E-1,-1.631756744E0,1.091230774E-1,1.674685156E0
7.685783708E0,1.083446960E0,-1.183738403E0,-2.246827698E-1,1.620363006E0
7.695751708E0,1.620829468E0,-7.123686218E-1,-3.915856934E-1,1.813255793E0
7.705719708E0,1.915267181E0,-2.903961182E-1,-7.659571838E-1,2.083091138E0
7.715686709E0,2.334545288E0,-5.313949585E-2,-1.260828094E0,2.653792191E0
7.725654709E0,2.744243317E0,-8.217910767E-2,-1.375938721E0,3.070965996E0
7.735622709E0,2.767445068E0,-4.939727783E-1,-1.033001862E0,2.994971479E0
7.745589708E0,2.970273285E0,-1.177002411E0,-2.677931213E-1,3.206177041E0
7.755557708E0,3.810775452E0,-1.867067413E0,6.059399414E-1,4.286620287E0
7.765525708E0,5.671256561E0,-2.391726379E0,8.695417786E-1,6.216076654E0
7.775492709E0,9.591304779E0,-3.516337738E0,7.939489746E-1,1.024637074E1
7.785460709E0,1.527827866E1,-5.978717194E0,1.400038605E0,1.646605496E1
7.795428709E0,2.094743958E1,-9.042695618E0,2.847977600E0,2.299296730E1
7.805395708E0,2.482392838E1,-1.143651764E1,3.761677551E0,2.758933804E1
7.815363708E0,2.749138138E1,-1.227896576E1,3.804937592E0,3.034842006E1
7.825331708E0,3.062810852E1,-1.216116074E1,3.320993958E0,3.312104864E1
7.835299708E0,3.413007614E1,-1.250783981E1,2.711910553E0,3.645082459E1
7.845266709E0,3.527803894E1,-1.213197144E1,4.644841003E0,3.759387331E1
7.855234709E0,3.385479858E1,-9.839039612E0,8.825347595E0,3.634337419E1
7.865202709E0,3.106969025E1,-6.473288727E0,1.106843307E1,3.361159517E1
7.875169708E0,2.789494217E1,-3.340303802E0,1.024948608E1,2.990547430E1
7.885137708E0,2.512240768E1,-1.570683746E0,8.104895782E0,2.644412507E1
7.895105708E0,2.307825851E1,-1.834135895E0,5.371879120E0,2.376609257E1
7.905072709E0,2.105237137E1,-3.851341095E0,2.661315765E0,2.156658921E1
7.915040709E0,1.848790421E1,-5.922583923E0,2.698887634E-1,1.941526312E1
7.925008709E0,1.464644257E1,-6.424190826E0,-1.355281677E0,1.605071014E1
7.934975708E0,1.044033920E1,-5.236261139E0,-2.047142944E0,1.185790486E1
7.944943708E0,7.358248444E0,-3.160228271E0,-2.037263489E0,8.263250293E0
7.954911708E0,5.406307526E0,-9.824070740E-1,-1.725012817E0,5.759249425E0
7.964879708E0,4.287384338E0,6.652166748E-1,-1.377136230E0,4.551997571E0
7.974846709E0,4.006418610E0,1.706002350E0,-7.819738770E-1,4.424174187E0
7.984814709E0,4.551285553E0,2.374512177E0,-9.505233765E-2,5.134349346E0
7.994782709E0,5.475463715E0,2.624043274E0,4.646337891E-1,6.089514804E0
8.004749708E0,6.040688324E0,2.195185089E0,1.101559296E0,6.520903763E0
8.014717708E0,5.661377106E0,1.280587006E0,1.602268066E0,6.021491241E0
8.024685708E0,4.407285004E0,1.146615601E-1,1.847757568E0,4.780325973E0
8.034652709E0,3.163671112E0,-1.023421783E0,1.738634491E0,3.752206943E0
8.044620709E0,1.909129944E0,-2.006726990E0,1.489402771E0,3.144845142E0
8.054588709E0,5.703140259E-1,-2.627186737E0,9.639953613E-1,2.855985871E0
8.064556709E0,-5.574407959E-1,-2.830763397E0,3.146456909E-1,2.902234236E0
8.074523708E0,-1.155297546E0,-2.769840088E0,-2.722837830E-1,3.013447360E0
8.084491708E0,-9.376501465E-1,-2.633323975E0,-4.564009094E-1,2.832293195E0
8.094459708E0,-1.001417542E-1,-2.601889343E0,-3.860472107E-1,2.632278286E0
8.104426709E0,1.196312256E0,-2.687660980E0,-1.023870850E-1,2.943665686E0
8.114394709E0,2.692750397E0,-2.875819702E0,4.082011414E-1,3.960791819E0
8.124362709E0,3.940106506E0,-3.161126404E0,9.030720520E-1,5.131539589E0
8.134329708E0,4.505031738E0,-3.244952087E0,1.421444092E0,5.731101842E0
8.144297708E0,4.778513031E0,-2.909050598E0,2.086660767E0,5.970838746E0
8.154265708E0,5.245392151E0,-2.211201782E0,2.955154724E0,6.413773584E0
8.164233708E0,5.936954041E0,-1.231489105E0,3.776796112E0,7.143400980E0
8.174200709E0,6.524931335E0,-2.195933533E-1,4.811145172E0,8.109874724E0
8.184168709E0,5.991291046E0,2.392025757E-1,5.508544922E0,8.142287973E0
8.194136709E0,4.714296570E0,2.737806702E-1,5.438340912E0,7.202437079E0
8.204103709E0,4.227059784E0,2.844085693E-3,4.448748779E0,6.136726180E0
8.214071709E0,4.643793182E0,-9.355545044E-1,2.773432617E0,5.489262777E0
8.224039709E0,5.733976135E0,-2.705473938E0,1.178499298E0,6.448793077E0
8.234006708E0,7.568411407E0,-4.664899292E0,3.543132019E-1,8.897621844E0
8.243974708E0,9.961185608E0,-6.042334900E0,2.797682190E-1,1.165389634E1
8.253942708E0,1.225456650E1,-6.571933594E0,1.196611633E0,1.395695492E1
8.263911333E0,1.369801483E1,-6.299799500E0,2.354004822E0,1.525989590E1
8.273878334E0,1.369756577E1,-4.976850586E0,4.252506866E0,1.518144144E1
8.283846334E0,1.288520508E1,-2.990181885E0,6.258784790E0,1.463359439E1
8.293814334E0,1.237805969E1,-1.044527893E0,7.220534821E0,1.436814266E1
8.303781333E0,1.248493744E1,9.045689392E-1,6.072272644E0,1.391274246E1
8.313749333E0,1.411819107E1,1.706301727E0,2.381248169E0,1.441891562E1
8.323717333E0,1.772598862E1,-8.122109985E-1,-4.974156189E-1,1.775155716E1
8.333684334E0,2.263383270E1,-5.886658630E0,-1.456171875E0,2.343210552E1
8.343652334E0,2.794344131E1,-1.163560364E1,-2.393522644E0,3.036366472E1
8.353620334E0,3.125680115E1,-1.530297729E1,-8.517288208E-1,3.481227045E1
8.363588334E0,3.012575317E1,-1.475376938E1,4.858446808E0,3.389453084E1
8.373555333E0,2.909484695E1,-1.055679703E1,1.137439682E1,3.297473254E1
8.383523333E0,2.971351044E1,-5.177134094E0,1.322080719E1,3.293152233E1
8.393491333E0,3.189387634E1,-1.624272308E0,1.149833908E1,3.394214799E1
8.403458334E0,3.510529816E1,-2.970273285E0,9.481882324E0,3.648438809E1
8.413426334E0,3.549014786E1,-7.528145142E0,7.539820862E0,3.705499241E1
8.423394334E0,3.187965591E1,-1.058733353E1,5.036726074E0,3.396722982E1
8.433361333E0,2.708003677E1,-1.098056580E1,3.333418121E0,2.941110153E1
8.443329333E0,2.273921356E1,-1.000534378E1,2.731669464E0,2.499281408E1
8.453297333E0,1.935310501E1,-8.308472443E0,2.692151642E0,2.123254738E1
8.463264334E0,1.691317886E1,-6.553072815E0,2.735261993E0,1.834339229E1
8.473232334E0,1.493309647E1,-5.288652191E0,2.589165802E0,1.605213355E1
8.483200334E0,1.274479706E1,-4.586911469E0,1.870360565E0,1.367361904E1
8.493168334E0,1.035845947E1,-4.126468964E0,6.741979980E-1,1.117049559E1
8.503135333E0,7.937543793E0,-3.547472992E0,-3.228785706E-1,8.700196358E0
8.513103333E0,5.703439636E0,-2.842439117E0,-9.225315857E-1,6.438924471E0
8.523071333E0,3.982019348E0,-2.070045319E0,-1.353485413E0,4.687588770E0
8.533038334E0,2.471061401E0,-1.339264984E0,-1.557660828E0,3.213422226E0
8.543006334E0,9.871971130E-1,-6.414161682E-1,-1.630110168E0,2.010778954E0
8.552974334E0,-3.065625000E-1,-2.100132751E-1,-1.722318420E0,1.761949739E0
8.562942334E0,-1.463356934E0,-2.276765442E-1,-1.947450256E0,2.446592043E0
8.572909334E0,-2.346819763E0,-5.897735596E-1,-2.043251038E0,3.167060254E0
8.582877334E0,-2.687211914E0,-1.050665131E0,-1.527124329E0,3.264523518E0
8.592845334E0,-2.723436584E0,-1.397942963E0,-4.963677979E-1,3.101246902E0
8.602812333E0,-2.520159302E0,-1.410516815E0,5.471122742E-1,2.939403414E0
8.612780333E0,-1.961221619E0,-1.033750305E0,1.402733002E0,2.623488099E0
8.622748333E0,-1.043480072E0,-4.355941772E-1,1.936972046E0,2.242867284E0
8.632715334E0,6.047424316E-2,1.526824951E-1,2.357896729E0,2.363608695E0
8.642683334E0,8.807684326E-1,6.168672180E-1,2.703677673E0,2.909665128E0
8.652651334E0,1.040486298E0,8.463400269E-1,2.750829620E0,3.060386704E0
8.662619334E0,6.981481934E-1,8.476872253E-1,2.368674316E0,2.610862415E0
8.672586333E0,2.251318359E-1,5.631289673E-1,1.577120361E0,1.689706250E0
8.682554333E0,-1.821711731E-1,1.429527283E-1,8.077203369E-1,8.402582707E-1
8.692522333E0,-4.574487305E-1,-2.975811768E-1,3.323089600E-1,6.389390758E-1
8.702489334E0,-5.382806396E-1,-6.421646118E-1,9.385482788E-2,8.431667477E-1
8.712457334E0,-6.644682312E-1,-8.761280823E-1,8.861572266E-2,1.103164173E0
8.722425334E0,-7.942483521E-1,-9.539662170E-1,1.724414062E-1,1.253243004E0
8.732393334E0,-8.514294434E-1,-9.153465271E-1,3.221301270E-1,1.290952819E0
8.742360333E0,-8.500822449E-1,-8.870553589E-1,5.131329346E-1,1.331470030E0
8.752328333E0,-8.253836060E-1,-8.436456299E-1,7.557783508E-1,1.401498113E0
8.762296333E0,-6.203100586E-1,-6.274951172E-1,1.071920929E0,1.388362045E0
8.772263334E0,-3.088078308E-1,-2.659968567E-1,1.518143005E0,1.571901647E0
8.782231334E0,2.245330811E-2,1.799258423E-1,1.976040802E0,1.984342388E0
8.792199334E0,2.077679443E-1,5.845344543E-1,2.241289215E0,2.325559157E0
8.802166333E0,3.842509460E-1,8.964857483E-1,2.089355164E0,2.305805821E0
8.812134333E0,4.992118835E-1,1.016236725E0,1.562151489E0,1.929317719E0
8.822102333E0,3.397933960E-1,7.997868347E-1,9.186396790E-1,1.264522595E0
8.832070333E0,1.377136230E-2,3.124003601E-1,2.110610962E-1,3.772670430E-1
8.842037334E0,-1.231938171E-1,-2.598596191E-1,-9.654922485E-2,3.033570356E-1
8.852005334E0,-8.053253174E-2,-8.286767578E-1,5.688171387E-2,8.345215318E-1
8.861973334E0,1.794767761E-1,-1.243763580E0,3.556604004E-1,1.306006921E0
8.871940333E0,7.524851990E-1,-1.176703033E0,5.733078003E-1,1.509816491E0
8.881908333E0,1.274749146E0,-7.153623962E-1,1.029708710E0,1.788023705E0
8.891876333E0,2.335593109E0,-4.260140991E-1,1.620230713E0,2.874305263E0
8.901844333E0,4.003424835E0,-4.619393921E-1,2.101629639E0,4.545068267E0
8.911811334E0,5.824837189E0,-8.193960571E-1,2.504891052E0,6.393326001E0
8.921779334E0,8.627309418E0,-1.805395660E0,2.720592499E0,9.224507836E0
8.931747334E0,1.339250015E1,-4.206702118E0,3.078198853E0,1.437117640E1
8.941714333E0,1.844030319E1,-7.328909454E0,4.394112396E0,2.032402321E1
8.951682333E0,2.225152771E1,-9.688303070E0,5.599106598E0,2.490669983E1
8.961650333E0,2.320519455E1,-9.494306488E0,5.936654663E0,2.576561232E1
8.971617334E0,2.223880417E1,-6.909481659E0,4.718487854E0,2.376067077E1
8.981585334E0,2.355037674E1,-4.178560638E0,3.545976105E0,2.417963110E1
8.991553334E0,2.628698593E1,-3.705843658E0,2.922522583E0,2.670730321E1
9.001521334E0,2.853022110E1,-4.488266602E0,2.306703186E0,2.897307254E1
9.011488333E0,2.961531464E1,-5.001848602E0,2.247875519E0,3.011873661E1
9.021456333E0,2.854818375E1,-5.453160095E0,3.936513977E0,2.932971007E1
9.031424333E0,2.558060486E1,-5.161267090E0,6.337071991E0,2.685450622E1
9.041391334E0,2.291973816E1,-3.990551605E0,7.692054291E0,2.450319568E1
9.051359334E0,2.144934586E1,-3.059936829E0,7.077881470E0,2.279328974E1
9.061327334E0,2.054717194E1,-3.112178192E0,5.092260590E0,2.139633253E1
9.071295334E0,1.902184387E1,-3.706891479E0,2.976111145E0,1.960685661E1
9.081262333E0,1.675870010E1,-3.890110474E0,8.057743835E-1,1.722313157E1
9.091230333E0,1.391611130E1,-3.337010651E0,-8.906478882E-1,1.433830699E1
9.101198333E0,1.114312775E1,-2.366728363E0,-2.034569092E0,1.157195621E1
9.111165334E0,9.253607025E0,-1.234782257E0,-2.853516083E0,9.761991817E0
9.121133334E0,8.292455750E0,-9.445358276E-2,-3.076103210E0,8.845120395E0
9.131101334E0,7.826474762E0,8.813671875E-1,-2.657872925E0,8.312328422E0
9.141068333E0,7.480095062E0,1.553619232E0,-1.777703247E0,7.843837307E0
9.151036333E0,7.080126801E0,1.663790131E0,-6.604266357E-1,7.302914244E0
9.161004333E0,6.407276001E0,1.181642761E0,2.760260010E-1,6.521169812E0
9.170972333E0,5.718258820E0,3.838018799E-1,1.220112762E0,5.859561670E0
9.180939334E0,5.043462067E0,-5.671705627E-1,2.049238586E0,5.473350971E0
9.190907334E0,4.010011139E0,-1.812281342E0,2.304008789E0,4.967193322E0
9.200875334E0,2.727627869E0,-3.037034454E0,2.006277924E0,4.548481414E0
9.210842334E0,1.887425079E0,-3.981420593E0,1.566642151E0,4.676371563E0
9.220810334E0,1.965113525E0,-4.472399597E0,1.144070892E0,5.017262952E0
9.230778334E0,2.738555145E0,-4.503385162E0,8.840615845E-1,5.344317271E0
9.240746334E0,3.793411560E0,-4.325255585E0,6.087840271E-1,5.785190155E0
9.250713333E0,5.276976471E0,-4.373305664E0,2.417472839E-1,6.857895075E0
9.260681000E0,7.166347504E0,-5.101990356E0,3.213816833E-1,8.802847740E0
9.270649000E0,9.353748779E0,-6.071823578E0,1.148112488E0,1.121061194E1
9.280616000E0,1.141436371E1,-6.432723083E0,2.195634155E0,1.328489497E1
9.290584000E0,1.267474274E1,-5.815406799E0,3.366948395E0,1.434588447E1
9.300552000E0,1.301543427E1,-4.615202637E0,4.319417725E0,1.446924303E1
9.310520000E0,1.301917648E1,-3.231330414E0,4.779710541E0,1.424029794E1
9.320487000E0,1.280931290E1,-1.976789246E0,4.708608398E0,1.378974930E1
9.330455000E0,1.219528976E1,-1.127305756E0,3.968098297E0,1.287407142E1
9.340423000E0,1.099837875E1,-7.143145752E-1,2.859653320E0,1.138649189E1
9.350390000E0,9.530231781E0,-5.270539856E-1,1.734892273E0,9.701183170E0
9.360358000E0,7.972421265E0,-4.587959290E-1,1.390159149E0,8.105710147E0
9.370326000E0,6.599775696E0,-4.388873291E-1,1.956431580E0,6.897629002E0
9.380294000E0,5.538931732E0,-4.677772522E-1,2.550845490E0,6.115994850E0
9.390261000E0,4.738546143E0,-4.450245667E-1,3.156186676E0,5.710812617E0
9.400229000E0,4.483925629E0,-3.659889221E-1,3.338357849E0,5.602157626E0
9.410197000E0,4.809797974E0,-1.344204712E-1,3.041674805E0,5.692452110E0
9.420164000E0,5.559888153E0,2.728825378E-1,2.629132690E0,6.156229354E0
9.430132000E0,5.912854156E0,7.530839539E-1,2.249222717E0,6.370869842E0
9.440100000E0,5.566773834E0,1.369951172E0,2.027833099E0,6.080941063E0
9.450068000E0,5.074597321E0,2.152823181E0,1.869911499E0,5.820889505E0
9.460035000E0,4.562063141E0,2.936443634E0,1.904489594E0,5.749974081E0
9.470003000E0,3.862418060E0,3.485801239E0,2.258802795E0,5.671972639E0
9.479971000E0,3.056643677E0,3.889212341E0,2.312690735E0,5.460547742E0
9.489938000E0,2.948718109E0,3.961661682E0,2.046544189E0,5.345843702E0
9.499906000E0,4.019890594E0,3.319497070E0,1.540296936E0,5.436091964E0
9.509874000E0,5.976621552E0,2.084864502E0,1.210083618E0,6.444452461E0
9.519842000E0,8.248447266E0,1.056802368E0,1.442550201E0,8.440063070E0
9.529809000E0,1.081291443E1,5.536985779E-1,1.562151489E0,1.093919640E1
9.539777000E0,1.310509781E1,2.164498901E-1,2.093097382E0,1.327296108E1
9.549745000E0,1.456441315E1,6.631210327E-2,2.875071259E0,1.484562435E1
9.559712000E0,1.525687317E1,2.278262329E-1,3.863465881E0,1.574009061E1
9.569680000E0,1.535342239E1,4.887336731E-1,4.021537170E0,1.587889168E1
9.579648000E0,1.545820450E1,6.366261292E-1,3.166515198E0,1.579202956E1
9.589616000E0,1.652518570E1,6.494993591E-1,1.882185974E0,1.664470594E1
9.599583000E0,1.827100525E1,6.604266357E-1,5.185217285E-1,1.829028871E1
9.609551000E0,2.001921982E1,3.978726196E-1,-2.411485291E-1,2.002462527E1
9.619519000E0,2.206606339E1,-1.824705505E-1,1.984872437E-1,2.206771048E1
9.629486000E0,2.481868927E1,-1.091230774E0,1.256038055E0,2.487439956E1
9.639454000E0,2.859548538E1,-2.385738831E0,2.040107574E0,2.876726565E1
9.649422000E0,3.310875000E1,-4.247866516E0,2.592458954E0,3.348065919E1
9.659389000E0,3.748924072E1,-6.554719391E0,3.387755127E0,3.820843364E1
9.669357000E0,4.000371185E1,-8.366102600E0,5.168452148E0,4.119467845E1
9.679325000E0,4.150673630E1,-8.289611664E0,8.639733582E0,4.319921083E1
9.689293000E0,4.184952347E1,-8.472381592E0,1.151031418E1,4.422274524E1
9.699260000E0,4.165208405E1,-8.941655731E0,1.474134521E1,4.507944733E1
9.709228000E0,4.088927032E1,-9.529183960E0,1.543754745E1,4.473316047E1
9.719196000E0,3.918446548E1,-1.029963181E1,1.295196625E1,4.253537563E1
9.729163000E0,3.604459488E1,-1.086291046E1,9.285640411E0,3.877420227E1
9.739131000E0,3.139167068E1,-1.084165466E1,6.039041748E0,3.375571788E1
9.749099000E0,2.596919678E1,-1.087129303E1,4.308041382E0,2.848057959E1
9.759067000E0,1.988794281E1,-1.122156464E1,3.395089874E0,2.308636865E1
9.769034000E0,1.381162857E1,-1.180160843E1,1.309626617E0,1.821411999E1
9.779002000E0,9.322613525E0,-1.066786606E1,-4.665797424E-1,1.417505506E1
9.788970000E0,4.043242035E0,-9.569749603E0,-3.000211029E0,1.081337967E1
9.798937000E0,1.869612122E-1,-8.419990540E0,-3.622616730E0,9.168126698E0
9.808905000E0,-2.887495422E0,-7.366181946E0,-2.469115448E0,8.288232463E0
9.818873000E0,-5.088668060E0,-6.253395996E0,-1.401535492E0,8.183141563E0
9.828841000E0,-6.032156067E0,-5.439688110E0,-8.327183533E-1,8.165202594E0
9.838808000E0,-5.958958282E0,-5.245990906E0,-1.041983185E0,8.007205090E0
9.848776000E0,-5.133125610E0,-5.505102081E0,-1.696871338E0,7.715860276E0
9.858744000E0,-3.761677551E0,-6.256539459E0,-2.028282166E0,7.576835259E0
9.868711000E0,-2.617007904E0,-7.228767700E0,-1.727707214E0,7.879643714E0
9.878679000E0,-3.573818207E0,-7.669151917E0,-1.733395386E0,8.636708126E0
9.888647000E0,-5.985153809E0,-7.101681976E0,-2.013762360E0,9.503220078E0
9.898615000E0,-7.899373169E0,-6.287225647E0,-1.529669037E0,1.021122863E1
9.908582000E0,-8.591384125E0,-5.506000214E0,-5.649252319E-1,1.021993444E1
9.918550000E0,-8.057444458E0,-4.799170074E0,3.017724609E-1,9.383256962E0
9.928518000E0,-6.467600555E0,-4.320166168E0,7.523355103E-1,7.814070731E0
9.938486000E0,-4.494703217E0,-4.182452545E0,9.713301086E-1,6.216007439E0
9.948453000E0,-2.704725494E0,-4.111350403E0,7.960446167E-1,4.985221075E0
9.958421000E0,-7.524851990E-1,-3.740571442E0,-8.981323242E-3,3.815519539E0
9.968389000E0,9.135502625E-1,-2.979553986E0,-5.873785400E-1,3.171329309E0
9.978356000E0,1.835483093E0,-2.080373840E0,-4.114942932E-1,2.804689119E0
9.988324000E0,1.967957611E0,-1.397194519E0,3.293151855E-1,2.435869080E0
9.998292000E0,1.262923737E0,-1.025966492E0,1.272054749E0,2.065358780E0
1.000826000E1,9.056167603E-2,-7.716453552E-1,1.528321838E0,1.714469484E0
1.001822700E1,-7.940986633E-1,-4.990621948E-1,9.942324829E-1,1.366804299E0
1.002819500E1,-1.115031281E0,-2.549198914E-1,3.359014893E-1,1.192102646E0
1.003816300E1,-1.190773773E0,-8.098159790E-2,-2.227368164E-1,1.214130095E0
1.004813000E1,-9.990225220E-1,-2.978805542E-2,-3.945794678E-1,1.074535381E0
1.005809800E1,-6.096821594E-1,-1.377136230E-2,-3.332070923E-1,6.949308975E-1
1.006806600E1,-3.559597778E-1,3.323089600E-2,-5.144801331E-1,6.264993721E-1
1.007803400E1,-1.990859985E-1,5.658233643E-2,-6.494993591E-1,6.816789663E-1
1.008800100E1,-2.041754150E-1,-1.055305481E-1,-3.534150696E-1,4.215762186E-1
1.009796900E1,-2.047741699E-1,-2.643502808E-1,1.767823792E-1,3.782400576E-1
1.010793700E1,3.442840576E-3,-4.236190796E-2,8.274792480E-1,8.285700274E-1
1.011790500E1,5.523513794E-1,6.730004883E-1,1.548529816E0,1.776503953E0
1.012787200E1,1.000369720E0,1.620979156E0,2.268083496E0,2.961843303E0
1.013784000E1,9.828561401E-1,2.468816071E0,2.655627594E0,3.756782786E0
1.014780800E1,9.110055542E-1,2.941682739E0,2.828967133E0,4.181684289E0
1.015777500E1,8.903485107E-1,2.957549744E0,2.581831055E0,4.025626976E0
1.016774300E1,1.198407898E0,2.403701477E0,1.947450256E0,3.317608292E0
1.017771100E1,1.972148895E0,1.219963074E0,1.205443268E0,2.613575068E0
1.018767900E1,2.802771606E0,-1.745370483E-1,4.861889648E-1,2.849977468E0
1.019764600E1,3.538940735E0,-1.370100861E0,4.158352661E-1,3.817616647E0
1.020761400E1,4.504882050E0,-2.316882019E0,8.366102600E-1,5.134376427E0
1.021758200E1,6.672823792E0,-2.557282104E0,2.007924500E0,7.422804720E0
1.022754900E1,1.033046768E1,-2.178120575E0,3.071612549E0,1.099534335E1
1.023751700E1,1.406699753E1,-3.161425781E0,3.216361542E0,1.477227180E1
1.024748500E1,1.574066711E1,-6.708449707E0,1.522483978E0,1.717817965E1
1.025745300E1,1.529339722E1,-1.157468033E1,-3.019520874E0,1.941594009E1
1.026741996E1,1.592208984E1,-1.644270721E1,-6.710994415E0,2.385189744E1
1.027738796E1,2.048654800E1,-2.010918274E1,-5.179379425E0,2.917025627E1
1.028735596E1,2.729334320E1,-2.038446030E1,1.045426025E0,3.408145713E1
1.029732396E1,3.512281174E1,-1.794573166E1,7.983797607E0,4.024179685E1
1.030729096E1,4.358022446E1,-1.589559494E1,1.351913681E1,4.831845364E1
1.031725896E1,4.504223419E1,-1.404214920E1,1.617805756E1,4.987699231E1
1.032722696E1,3.940914825E1,-9.410929871E0,1.708457245E1,4.397191357E1
1.033719396E1,3.147789139E1,-3.856729889E0,1.588481735E1,3.546913354E1
1.034716196E1,2.424059143E1,-1.125060425E0,1.234273315E1,2.722526576E1
1.035712996E1,1.837997864E1,-2.084714813E0,7.062762909E0,1.980030986E1
1.036709796E1,1.394589935E1,-5.138664093E0,1.356928253E0,1.492431679E1
1.037706496E1,1.059885956E1,-7.759863281E0,-2.817291412E0,1.343459836E1
1.038703296E1,7.642657013E0,-8.350834351E0,-4.651726685E0,1.223867647E1
1.039700096E1,5.893394623E0,-7.278913422E0,-5.237758026E0,1.073074042E1
1.040696796E1,6.364914093E0,-5.755381622E0,-4.982089691E0,9.922588711E0
1.041693596E1,7.961643677E0,-4.054019623E0,-4.410578156E0,9.963736488E0
1.042690396E1,9.707463226E0,-2.102527771E0,-3.503015442E0,1.053216894E1
1.043687196E1,1.054182816E1,-1.517843628E-1,-1.825453949E0,1.069978792E1
1.044683896E1,9.634115753E0,1.146765289E0,-2.050735474E-2,9.702148088E0
1.045680696E1,7.463629303E0,1.254541168E0,1.768871613E0,7.772293271E0
1.046677496E1,4.785548401E0,4.595443726E-1,3.253035278E0,5.804730231E0
1.047674296E1,2.037712555E0,-6.053411865E-1,4.285288696E0,4.783556169E0
1.048670996E1,1.739382935E-1,-1.237326965E0,5.218597870E0,5.366096931E0
1.049667796E1,-8.535250854E-1,-1.427132263E0,5.314698029E0,5.568772459E0
1.050664596E1,-1.030307465E0,-1.641785889E0,4.378095703E0,4.787976228E0
1.051661296E1,-5.078938293E-1,-1.913321228E0,2.718197479E0,3.362640599E0
1.052658096E1,2.799179077E-2,-1.902094574E0,1.271905060E0,2.288337779E0
1.053654896E1,6.337820435E-1,-1.390159149E0,3.356021118E-1,1.564241323E0
1.054651696E1,1.849254456E0,-6.057902527E-1,-4.460723877E-2,1.946461836E0
1.055648396E1,3.136128387E0,3.555107117E-1,3.899391174E-1,3.180210943E0
1.056645196E1,4.697381744E0,1.683998108E0,1.178798676E0,5.127456601E0
1.057641996E1,6.522985382E0,2.968926086E0,1.898052979E0,7.413937248E0
1.058638796E1,7.788453827E0,3.370690613E0,2.307900696E0,8.794769687E0
1.059635496E1,7.952063599E0,2.677781525E0,2.246378632E0,8.686313736E0
1.060632296E1,6.980284424E0,1.630858612E0,1.487456818E0,7.320969761E0
1.061629096E1,5.685327301E0,9.690847778E-1,8.425978088E-1,5.828554100E0
1.062625796E1,4.354295197E0,8.170010376E-1,8.521778870E-1,4.511494709E0
1.063622596E1,3.317102051E0,1.425186310E0,7.461982727E-1,3.686615507E0
1.064619396E1,3.402723999E0,2.383792877E0,7.298822021E-1,4.218261149E0
1.065616196E1,4.929399261E0,2.761158142E0,1.050964508E0,5.746955521E0
1.066612896E1,6.463858337E0,1.902094574E0,9.852511597E-1,6.809562998E0
1.067609696E1,7.941435699E0,7.204518127E-1,6.360273743E-1,7.999373888E0
1.068606496E1,1.080288528E1,-3.450325012E-1,-1.564247131E-1,1.080952573E1
1.069603296E1,1.457279572E1,-1.720671844E0,-1.896556091E-1,1.467525318E1
1.070599996E1,1.830708023E1,-2.509381714E0,9.160949707E-2,1.847848953E1
1.071596796E1,2.076302307E1,-2.268682251E0,6.071374512E-1,2.089542204E1
1.072593596E1,2.168300995E1,-1.670226746E0,9.457333374E-1,2.176779707E1
1.073590296E1,2.188748474E1,-2.083367615E0,2.143093414E0,2.209061471E1
1.074587096E1,2.308349762E1,-4.031865692E0,3.864064636E0,2.374941681E1
1.075583896E1,2.829700607E1,-7.646249542E0,4.744533691E0,2.969337106E1
1.076580696E1,3.543835556E1,-1.210577591E1,4.349505157E0,3.770073010E1
1.077577396E1,4.249767563E1,-1.534803360E1,2.782413940E0,4.526981772E1
1.078574196E1,4.669659393E1,-1.387898849E1,1.383273468E0,4.873511724E1
1.079570996E1,4.865586960E1,-1.048479675E1,1.986369324E0,4.981235060E1
1.080567696E1,4.766852280E1,-1.053419403E1,5.145699463E0,4.908905716E1
1.081564496E1,4.345403687E1,-1.401071457E1,1.046698380E1,4.684134063E1
1.082561296E1,3.632511154E1,-1.912917068E1,1.312949707E1,4.310246620E1
1.083558096E1,2.654160645E1,-2.372371628E1,1.240036331E1,3.769669212E1
1.084554796E1,1.973361374E1,-2.389885208E1,1.021026764E1,3.263158297E1
1.085551596E1,1.764455795E1,-2.166235291E1,5.808371429E0,2.853638270E1
1.086548396E1,1.845542175E1,-1.981983444E1,-2.074685669E-1,2.708267846E1
1.087545196E1,2.062590820E1,-1.778915726E1,-5.076243896E0,2.770650568E1
1.088541896E1,2.058773758E1,-1.591415634E1,-8.389304352E0,2.734036829E1
1.089538696E1,1.995380585E1,-1.353111191E1,-7.664361877E0,2.529798016E1
1.090535496E1,1.804766968E1,-1.078971268E1,-6.088888092E0,2.189088483E1
1.091532296E1,1.466769836E1,-8.057594147E0,-4.584217072E0,1.735169285E1
1.092528996E1,1.070738388E1,-5.808072052E0,-3.166664886E0,1.258608506E1
1.093525796E1,5.524262238E0,-3.417393494E0,-2.268682251E0,6.880622844E0
1.094522596E1,-5.662724304E-1,-6.686595154E-1,-1.575623474E0,1.802875299E0
1.095519296E1,-6.258934479E0,1.774859161E0,9.380992126E-1,6.573006617E0
1.096516096E1,-9.193581848E0,3.069965973E0,1.902843018E0,9.877623693E0
1.097512896E1,-8.952283630E0,1.252894592E0,2.690954132E0,9.431561970E0
1.098509696E1,-6.327491913E0,-2.877765656E0,3.248245239E0,7.672664870E0
1.099506396E1,-3.039878540E0,-7.133415985E0,3.178490295E0,8.380291505E0
1.100503196E1,-1.442999268E0,-8.211623840E0,4.064348145E0,9.275340361E0
1.101499996E1,-8.536747742E-1,-7.135960693E0,4.235741730E0,8.342194174E0
1.102496796E1,-5.638774109E-1,-5.960155792E0,4.088448029E0,7.249608409E0
1.103493496E1,-1.409319305E0,-4.248614960E0,3.998634796E0,6.002165460E0
1.104490296E1,-3.613635406E0,-1.694626007E0,3.134032745E0,5.074670374E0
1.105487096E1,-5.364694061E0,2.603086853E-1,1.861379242E0,5.684402842E0
1.106483796E1,-5.309009857E0,-4.505630493E-2,1.173559570E0,5.437357612E0
1.107480596E1,-4.302951965E0,-2.024539948E0,7.390132141E-1,4.812514742E0
1.108477396E1,-3.462000732E0,-4.195924530E0,1.151405640E0,5.560302751E0
1.109474196E1,-2.962190094E0,-4.945715332E0,1.046922913E0,5.859242091E0
1.110470896E1,-2.271376648E0,-4.416266327E0,1.076261902E-1,4.967307474E0
1.111467696E1,-1.077459412E0,-3.664379883E0,6.397695923E-1,3.872712724E0
1.112464496E1,1.698966980E-1,-2.529290314E0,1.930086365E0,3.186127391E0
1.113461296E1,2.088007965E0,-5.840853882E-1,2.596201172E0,3.382483337E0
1.114457996E1,3.471580811E0,1.536405029E0,2.848426666E0,4.746150884E0
1.115454796E1,3.077450409E0,2.868934021E0,2.527344360E0,4.908049811E0
1.116451596E1,1.919159088E0,2.943778381E0,1.591490479E0,3.857699406E0
1.117448396E1,7.670050049E-1,1.756297760E0,5.873785400E-1,2.004468021E0
1.118445096E1,-1.987866211E-1,-2.802172852E-1,6.526428223E-2,3.497102717E-1
1.119441896E1,-1.189576263E0,-2.222278748E0,-9.639953613E-2,2.522480404E0
1.120438696E1,-2.197879486E0,-3.338657227E0,-4.219725037E-1,4.019373969E0
1.121435496E1,-2.934647369E0,-3.592379608E0,-9.183403015E-1,4.728709691E0
1.122432196E1,-3.154540100E0,-3.235671387E0,-1.394949188E0,4.729331433E0
1.123428996E1,-2.799179077E0,-2.427202606E0,-1.857487335E0,4.144511455E0
1.124425796E1,-2.126178589E0,-1.385818176E0,-1.981130219E0,3.219627983E0
1.125422596E1,-1.068627777E0,-4.340972900E-1,-1.965562592E0,2.279000238E0
1.126419296E1,3.923341370E-1,2.574645996E-1,-1.674118652E0,1.738645265E0
1.127416096E1,1.434167633E0,3.201841736E-1,-1.069974976E0,1.817746174E0
1.128412896E1,1.879940643E0,-1.862127686E-1,-5.972579956E-2,1.890084440E0
1.129409596E1,1.848805389E0,-7.482939148E-1,7.631130981E-1,2.135501522E0
1.130406396E1,1.570084991E0,-1.117875366E0,1.150208130E0,2.244502385E0
1.131403196E1,1.126257935E0,-1.308878174E0,1.383123779E0,2.212385680E0
1.132399996E1,6.209088135E-1,-1.233135681E0,1.361568604E0,1.939077210E0
1.133396696E1,2.535726929E-1,-9.421408081E-1,8.893006897E-1,1.320145496E0
1.134393496E1,1.302291870E-1,-6.102809143E-1,2.061213684E-1,6.571822076E-1
1.135390296E1,4.757107544E-1,-1.471440125E-1,-5.996530151E-1,7.794458421E-1
1.136387096E1,1.112187195E0,5.551954651E-1,-1.517544250E0,1.961668400E0
1.137383796E1,1.253493347E0,1.176253967E0,-2.307152252E0,2.877111482E0
1.138380596E1,1.112636261E0,1.551972656E0,-2.908152466E0,3.479070183E0
1.139377396E1,6.493496704E-1,1.507814484E0,-3.165018311E0,3.565459356E0
1.140374196E1,4.879852295E-1,9.282197571E-1,-3.128194885E0,3.299291551E0
1.141370896E1,9.084608459E-1,-2.350112915E-2,-2.578837280E0,2.734274150E0
1.142367696E1,1.779349823E0,-5.122348022E-1,-1.719174957E0,2.526664366E0
1.143364496E1,2.725831604E0,-4.909790039E-1,-6.423143005E-1,2.843199954E0
1.144361296E1,3.935466156E0,-2.815644836E-1,5.165757751E-1,3.979198783E0
1.145357996E1,6.280040588E0,-3.348536682E-1,1.621278534E0,6.494580884E0
1.146354796E1,1.122126526E1,-8.229885864E-1,1.913919983E0,1.141302738E1
1.147351596E1,1.818238953E1,-3.810176697E0,1.370849304E0,1.862782766E1
1.148348296E1,2.317780151E1,-8.804840240E0,-1.093476105E0,2.481796496E1
1.149345096E1,2.456915817E1,-1.161524597E1,-4.974006500E0,2.762785212E1
1.150341896E1,2.576427292E1,-1.160147461E1,-8.223748627E0,2.942825196E1
1.151338696E1,3.408307388E1,-1.478640152E1,-4.178860016E0,3.738658137E1
1.152335396E1,4.549204880E1,-2.151895111E1,5.931864624E0,5.067325506E1
1.153332196E1,5.204437317E1,-2.323857513E1,1.504296799E1,5.894861354E1
1.154328996E1,5.268489120E1,-1.655632095E1,1.894191010E1,5.838326372E1
1.155325796E1,4.654076797E1,-7.608378296E0,1.428689026E1,4.927520408E1
1.156322496E1,3.894571198E1,-3.037034454E0,6.718478851E0,3.963748248E1
1.157319296E1,3.171020828E1,-3.067720642E0,-1.267264709E0,3.188344679E1
1.158316096E1,2.278546738E1,-6.490203552E0,-8.003257141E0,2.500704682E1
1.159312896E1,1.418345535E1,-1.032223480E1,-1.249272125E1,2.153571502E1
1.160309596E1,7.978558502E0,-1.245499969E1,-1.413765060E1,2.046112357E1
1.161306396E1,5.717660065E0,-1.261845978E1,-1.292442352E1,1.894618397E1
1.162303196E1,6.564149780E0,-1.192345505E1,-9.069340210E0,1.635572604E1
1.163299996E1,8.338709564E0,-1.048195267E1,-4.848567352E0,1.424478902E1
1.164296696E1,9.545649719E0,-8.329877930E0,-1.224603424E0,1.272815574E1
1.165293496E1,1.032477951E1,-5.986800385E0,2.111509094E0,1.212028553E1
1.166290296E1,9.718390503E0,-4.064348145E0,4.093387756E0,1.130140979E1
1.167286996E1,7.208260345E0,-2.868484955E0,4.478237457E0,8.957780633E0
1.168283796E1,4.706063690E0,-2.391876068E0,3.940854950E0,6.587749564E0
1.169280596E1,2.615810394E0,-2.676733704E0,2.920576630E0,4.747329269E0
1.170277396E1,1.018931122E0,-3.446882172E0,1.733395386E0,3.990473268E0
1.171274096E1,1.519340515E-1,-3.987857208E0,3.885919189E-1,4.009625014E0
1.172270896E1,-1.061293030E-1,-4.409530334E0,-1.459315338E0,4.645946885E0
1.173267696E1,3.531156921E-1,-5.190905457E0,-3.248394928E0,6.133698701E0
1.174264496E1,1.657353516E0,-6.127358093E0,-4.110751648E0,7.562381701E0
1.175261196E1,3.592978363E0,-6.818171539E0,-3.541186066E0,8.481565622E0
1.176257996E1,5.700745239E0,-7.092101898E0,-1.736239471E0,9.263419084E0
1.177254796E1,7.201674042E0,-7.225474548E0,2.561174011E-1,1.020476298E1
1.178251596E1,7.027436371E0,-6.995702362E0,1.740879822E0,1.006754071E1
1.179248296E1,5.468727722E0,-5.913303223E0,2.175426178E0,8.343058010E0
1.180245096E1,3.426973572E0,-4.471351776E0,1.390608215E0,5.802665403E0
1.181241896E1,1.813478851E0,-3.482957153E0,4.438270569E-1,3.951794343E0
1.182238696E1,1.035396881E0,-3.324137421E0,-2.643502808E-1,3.491678302E0
1.183235396E1,9.300160217E-1,-3.844455414E0,-4.209246826E-1,3.977680834E0
1.184232196E1,1.096619568E0,-4.445006561E0,7.274871826E-2,4.578859048E0
1.185228996E1,1.131946106E0,-4.264781342E0,1.210083618E0,4.575364930E0
1.186225796E1,9.443861389E-1,-2.911146240E0,2.628084869E0,4.034038633E0
1.187222496E1,2.435435486E-1,-8.150550842E-1,3.896247711E0,3.988028896E0
1.188219296E1,-2.023941193E0,1.682351532E0,4.124523010E0,4.892681748E0
1.189216096E1,-5.906267853E0,4.621938629E0,3.359913025E0,8.217988329E0
1.190212896E1,-9.317374420E0,6.693630524E0,4.427193604E0,1.229708091E1
1.191209596E1,-8.871751099E0,5.015619965E0,7.689060516E0,1.276659950E1
1.192206396E1,-4.324656830E0,3.523672485E-1,1.051458481E1,1.137467859E1
1.193203196E1,1.976489868E0,-3.794609070E0,9.309440918E0,1.024554832E1
1.194199996E1,7.096742249E0,-5.840554504E0,6.506369934E0,1.126093589E1
1.195196696E1,9.605824585E0,-5.098547516E0,3.252286835E0,1.135096570E1
1.196193496E1,1.118593872E1,-2.470163269E0,2.781216431E-1,1.145880811E1
1.197190296E1,1.036863831E1,8.424481201E-1,-2.305056610E0,1.065512389E1
1.198187096E1,8.910370789E0,3.224444733E0,-3.652554474E0,1.015543724E1
1.199183796E1,8.528065796E0,1.916913757E0,-2.072889404E0,8.983280863E0
1.200180596E1,6.789131927E0,-1.120270386E0,4.197271729E-1,6.893728234E0
1.201177396E1,5.537135468E0,-3.033741302E0,2.350112915E-1,6.318123597E0
1.202174196E1,7.168892212E0,-4.211941223E0,-2.378404083E0,8.648136816E0
1.203170896E1,1.133727402E1,-4.476141815E0,-5.817352753E0,1.350596982E1
1.204167696E1,1.755384659E1,-4.124822388E0,-8.994795227E0,2.015088164E1
1.205164496E1,2.401980057E1,-3.808380432E0,-8.902287598E0,2.589797879E1
1.206161196E1,3.174493607E1,-5.019212494E0,-5.609435120E0,3.262513176E1
1.207157996E1,3.732637939E1,-5.754184113E0,1.105600891E0,3.778348299E1
1.208154796E1,4.076068771E1,-4.516707458E0,6.558012543E0,4.153121522E1
1.209151596E1,4.322621063E1,-2.281854858E0,8.887767792E0,4.418941687E1
1.210148296E1,4.508384766E1,-1.826202393E0,9.353299713E0,4.608006673E1
1.211145096E1,4.757466797E1,-4.332440643E0,9.417216797E0,4.869089285E1
1.212141896E1,5.057517838E1,-8.480764160E0,1.089688980E1,5.242627429E1
1.213138696E1,5.639552490E1,-1.551269119E1,1.236368958E1,5.978260313E1
1.214135396E1,5.798701538E1,-2.466001923E1,9.899364166E0,6.378564033E1
1.215132196E1,4.620651306E1,-3.145992874E1,4.129911804E0,5.605198602E1
1.216128996E1,3.011766998E1,-3.400957672E1,5.040019226E-1,4.543103974E1
1.217125796E1,2.093157257E1,-3.332879242E1,5.315446472E-1,3.936015338E1
1.218122496E1,2.331132385E1,-2.991978149E1,5.875581665E0,3.838142265E1
1.219119296E1,3.255535080E1,-2.618310196E1,1.181073944E1,4.341542652E1
1.220116096E1,3.681115082E1,-2.449820572E1,1.357901230E1,4.625594538E1
1.221112896E1,2.949915619E1,-2.516791306E1,8.028255157E0,3.959895130E1
1.222109596E1,1.702858887E1,-2.646631302E1,-2.272424469E0,3.155316904E1
1.223106396E1,5.024301910E0,-2.727912277E1,-1.133248398E1,2.996363366E1
1.224103196E1,6.691085815E-2,-2.493529678E1,-1.388632324E1,2.854125919E1
1.225099996E1,-2.259700928E0,-2.043116318E1,-1.197779205E1,2.379088438E1
1.226096696E1,-4.693190460E0,-1.647309402E1,-7.950866089E0,1.888399150E1
1.227093513E1,-6.555916901E0,-1.356718689E1,-5.309309235E0,1.597615007E1
1.228090313E1,-5.687572632E0,-9.995913391E0,-3.714525604E0,1.208571336E1
1.229087113E1,-1.949545898E0,-4.033512268E0,-2.475701752E0,5.118500717E0
1.230083813E1,1.802551575E0,6.055956573E0,-3.552113342E-1,6.328505139E0
1.231080613E1,6.994953918E-1,1.677845901E1,3.026556244E0,1.706358765E1
1.232077413E1,-2.375559998E0,2.021396484E1,5.910758514E0,2.119397854E1
1.233074213E1,-2.965333557E0,1.335088669E1,7.739505615E0,1.571430322E1
1.234070913E1,-3.975283356E0,2.433339844E0,6.972350922E0,8.386757295E0
1.235067713E1,-7.122788086E0,-7.099736023E0,4.471950531E0,1.100630289E1
1.236064513E1,-1.279883469E1,-1.263821869E1,1.626367950E0,1.806044888E1
1.237061313E1,-2.007295807E1,-1.295735504E1,-2.143093414E0,2.398769569E1
1.238058013E1,-2.327180603E1,-9.739646301E0,-3.476670227E0,2.546615208E1
1.239054813E1,-1.987686584E1,-3.829636230E0,1.701960754E-1,2.024314393E1
1.240051613E1,-1.047386948E1,4.512216797E0,7.020850067E0,1.339232534E1
1.241048413E1,4.653822327E-1,1.254436386E1,1.333831284E1,1.831633791E1
1.242045113E1,8.232879639E0,1.359173584E1,1.319745575E1,2.065643794E1
1.243041913E1,1.002794678E1,9.061556396E0,8.792565765E0,1.612391806E1
1.244038713E1,7.014413452E0,4.075425110E0,4.511917419E0,9.282698137E0
1.245035513E1,2.818039856E0,9.687854004E-1,2.813549194E0,4.098286575E0
1.246032213E1,1.516346741E-1,-6.297404480E-1,2.811303864E0,2.884960228E0
1.247029013E1,-8.887019348E-1,-1.050066376E0,3.614383850E0,3.867324804E0
1.248025813E1,-8.075706482E-1,3.863465881E-1,4.656965790E0,4.742232007E0
1.249022613E1,1.822909241E0,3.381917267E0,5.214107208E0,6.476671713E0
1.250019313E1,5.241200867E0,6.666536865E0,5.278922424E0,9.988990052E0
1.251016113E1,8.322094116E0,9.287286987E0,4.176165619E0,1.315109537E1
1.252012913E1,1.040246796E1,1.045590683E1,1.829944611E0,1.486223484E1
1.253009713E1,1.093835358E1,9.705217896E0,-1.234482880E0,1.467524383E1
1.254006413E1,9.909542999E0,7.310497742E0,-3.935166779E0,1.292779785E1
1.255003213E1,8.000712433E0,4.457131348E0,-5.434149628E0,1.064929112E1
1.256000013E1,6.482719116E0,2.469115448E0,-5.849086761E0,9.073808141E0
1.256996813E1,5.842350769E0,1.682501221E0,-5.489235077E0,8.191188839E0
1.257993513E1,5.422773285E0,1.646426239E0,-4.149221649E0,7.023761795E0
1.258990313E1,5.097350006E0,1.620829468E0,-2.194736023E0,5.781602845E0
1.259987113E1,5.121000824E0,1.559457092E0,6.810836792E-2,5.353615097E0
1.260983913E1,5.285508728E0,1.973945160E0,2.102827148E0,6.021207854E0
1.261980613E1,5.705535278E0,2.941383362E0,3.367098083E0,7.248601134E0
1.262977413E1,5.714067535E0,3.571872253E0,3.963457947E0,7.817789847E0
1.263974213E1,5.027894440E0,3.018323364E0,4.038451996E0,7.120329554E0
1.264971013E1,4.084705811E0,1.405726776E0,3.499871979E0,5.559675638E0
1.265967713E1,3.272794189E0,-3.701802063E-1,2.416724396E0,4.085189346E0
1.266964513E1,2.545456696E0,-1.867965546E0,1.319057007E0,3.421776798E0
1.267961313E1,1.896256714E0,-2.732268219E0,5.777984619E-1,3.375637748E0
1.268958113E1,1.598525848E0,-2.856509857E0,2.305206299E-2,3.273448464E0
1.269954813E1,1.606309662E0,-2.514321442E0,-3.347039795E-1,3.002344050E0
1.270951613E1,1.751358032E0,-1.909129944E0,-4.754113770E-1,2.634017478E0
1.271948413E1,2.127974854E0,-1.168769531E0,-5.589376831E-1,2.491327062E0
1.272945213E1,2.716401215E0,-4.450245667E-1,-6.138734436E-1,2.820234570E0
1.273941913E1,3.964206390E0,4.119433594E-1,-5.800437927E-1,4.027540247E0
1.274938713E1,5.846841431E0,1.455573120E0,-2.095642090E-1,6.028943936E0
1.275935513E1,7.100634155E0,2.357597351E0,2.242337036E-1,7.485155405E0
1.276932313E1,7.353757782E0,2.802023163E0,3.824546814E-1,7.878791716E0
1.277929013E1,7.338040466E0,2.399360504E0,5.971083069E-1,7.743404099E0
1.278925813E1,7.181316376E0,1.080453186E0,7.454498291E-1,7.300299954E0
1.279922613E1,7.390431519E0,-6.373745728E-1,5.495072937E-1,7.438190818E0
1.280919413E1,8.888965302E0,-2.694995728E0,-3.549119568E-1,9.295303578E0
1.281916112E1,1.263836838E1,-6.178102570E0,-1.484463043E0,1.414570384E1
1.282912912E1,1.926448929E1,-1.238090378E1,-5.818400574E-1,2.290733210E1
1.283909712E1,2.349394409E1,-1.894056290E1,2.832859039E0,3.031064866E1
1.284906512E1,1.957165054E1,-1.757570114E1,4.386777649E0,2.666830692E1
1.285903213E1,1.657697800E1,-1.101409607E1,2.755469971E0,2.009226534E1
1.286900013E1,1.812161591E1,-6.594835968E0,1.335971832E0,1.933053660E1
1.287896813E1,2.143033539E1,-4.369862823E0,1.669029236E0,2.193491816E1
1.288893613E1,2.652035065E1,-2.662064209E0,3.061134338E0,2.682883016E1
1.289890312E1,2.990690826E1,-7.343728638E-1,4.371808777E0,3.023367621E1
1.290887112E1,2.919543777E1,9.258247375E-1,4.753664703E0,2.959439248E1
1.291883912E1,2.505370056E1,1.082997894E0,4.704866180E0,2.551463427E1
1.292880712E1,1.995156052E1,-6.227050781E-1,3.059487762E0,2.019438026E1
1.293877413E1,1.573872116E1,-2.959645386E0,2.155517578E-2,1.601459675E1
1.294874213E1,1.292053162E1,-5.472769318E0,-2.044448547E0,1.417995455E1
1.295871013E1,1.130958160E1,-6.861281891E0,-2.597997437E0,1.348085368E1
1.296867813E1,1.106094864E1,-6.363566895E0,-1.745071106E0,1.287962894E1
1.297864513E1,1.230516129E1,-4.603526917E0,6.765930176E-2,1.313826595E1
1.298861313E1,1.489297989E1,-2.437980194E0,2.242935791E0,1.525697737E1
1.299858113E1,1.848401230E1,-3.703298950E-1,3.796704712E0,1.887354820E1
1.300854913E1,2.147569107E1,1.321452026E0,4.374503174E0,2.195649836E1
1.301851613E1,2.254222321E1,2.321372681E0,4.142485657E0,2.303694393E1
1.302848413E1,2.094055389E1,2.279310150E0,2.297123108E0,2.118912048E1
1.303845213E1,1.741149261E1,1.614542542E0,-9.331594849E-1,1.751107105E1
1.304842013E1,1.348186432E1,7.710466003E-1,-3.342249756E0,1.391135550E1
1.305838713E1,1.057490936E1,3.670367432E-1,-4.042643280E0,1.132724100E1
1.306835513E1,8.962163086E0,7.741900635E-1,-3.231629791E0,9.558408264E0
1.307832313E1,8.246052246E0,1.614243164E0,-1.660496979E0,8.565069110E0
1.308829113E1,8.454119568E0,2.696342926E0,-2.454895020E-2,8.873725570E0
1.309825813E1,9.095984802E0,3.446732483E0,1.544039154E0,9.848906601E0
1.310822613E1,9.697434082E0,3.748504944E0,2.969824219E0,1.081255626E1
1.311819413E1,1.095302307E1,3.707939301E0,3.620820465E0,1.211725501E1
1.312816213E1,1.252310806E1,3.202290802E0,2.818788300E0,1.322983255E1
1.313813013E1,1.356284592E1,2.644101562E0,1.220711517E0,1.387199333E1
1.314809713E1,1.350776047E1,2.695295105E0,-3.254232788E-1,1.377788477E1
1.315806513E1,1.219229599E1,3.128194885E0,-1.156495056E0,1.264022015E1
1.316803313E1,1.029139893E1,3.524121552E0,-1.424886932E0,1.097099026E1
1.317800113E1,8.788224792E0,3.619323578E0,-9.590556335E-1,9.552601000E0
1.318796813E1,7.854316864E0,3.207829285E0,-3.719764709E-1,8.492280531E0
1.319793613E1,7.350314941E0,2.232008514E0,5.897735596E-2,7.681957438E0
1.320790413E1,7.535479889E0,7.382647705E-1,3.802093506E-1,7.581098283E0
1.321787213E1,8.462352448E0,-1.285826111E0,5.914201355E-1,8.579891346E0
1.322783913E1,9.848769379E0,-3.244952087E0,1.470991058E0,1.047338470E1
1.323780713E1,1.114866623E1,-4.621788940E0,2.451901245E0,1.231525523E1
1.324777513E1,1.219828354E1,-5.008734283E0,3.522025909E0,1.364881705E1
1.325774313E1,1.297726364E1,-4.334236908E0,4.652924194E0,1.445145961E1
1.326770971E1,1.342872482E1,-3.268004150E0,5.271138611E0,1.479173431E1
1.327767771E1,1.277548325E1,-2.364033966E0,5.211712189E0,1.399869896E1
1.328764571E1,1.193363388E1,-2.426154785E0,4.130061493E0,1.285905333E1
1.329761371E1,1.168544998E1,-3.362308044E0,2.705324249E0,1.245687103E1
1.330758071E1,1.114058304E1,-4.410578156E0,1.559906158E0,1.208300862E1
1.331754871E1,1.011311966E1,-4.995861053E0,1.404379578E0,1.136688607E1
1.332751671E1,9.129066010E0,-4.866230621E0,2.158211975E0,1.056777770E1
1.333748471E1,8.716673584E0,-4.172872467E0,2.897823944E0,1.008913508E1
1.334745171E1,9.166637878E0,-3.073857880E0,3.244053955E0,1.019802620E1
1.335741971E1,9.993518372E0,-1.618434448E0,3.119063873E0,1.059331388E1
1.336738771E1,1.021999741E1,3.353027344E-1,2.651436310E0,1.056365890E1
1.337735571E1,9.594897308E0,2.665357361E0,1.476080475E0,1.006702527E1
1.338732271E1,7.406897278E0,4.609364777E0,-8.562194824E-1,8.765927374E0
1.339729071E1,4.602179718E0,5.874234467E0,-1.857936401E0,7.690163613E0
1.340725871E1,2.538720703E0,6.811435547E0,2.451901245E-1,7.273298785E0
1.341722671E1,5.825885010E-1,7.766299896E0,3.540287933E0,8.555025546E0
1.342719371E1,-9.702822876E-1,8.752898254E0,5.266348572E0,1.026104784E1
1.343716171E1,-1.232237549E0,9.350006561E0,4.308789825E0,1.036854386E1
1.344712971E1,1.868115234E-1,8.763975220E0,3.022065582E0,9.272272676E0
1.345709771E1,3.082539825E0,6.905140686E0,2.254611511E0,7.890899362E0
1.346706571E1,5.032684479E0,4.669240265E0,1.642684021E0,7.058904200E0
1.347703271E1,5.410199432E0,2.973267059E0,1.118623810E0,6.273905812E0
1.348700071E1,4.529730377E0,1.532812500E0,4.806504822E-1,4.806141523E0
1.349696871E1,1.923350372E0,6.436614990E-2,2.049238586E-1,1.935307067E0
1.350693671E1,-5.912704468E-1,-1.146316223E0,-1.068777466E-1,1.294242820E0
1.351690371E1,-2.012415161E0,-2.395318909E0,-2.263293457E-1,3.136653061E0
1.352687171E1,-2.218087463E0,-3.793112183E0,-1.294807434E-1,4.395950101E0
1.353683971E1,-8.526269531E-1,-4.727469177E0,-8.966354370E-2,4.804578763E0
1.354680771E1,1.222358093E0,-5.068759460E0,9.460327148E-2,5.214923926E0
1.355677471E1,3.215613098E0,-5.258415070E0,2.683918762E-1,6.169532465E0
1.356674271E1,4.988675995E0,-4.847519531E0,-2.776725769E-1,6.961496667E0
1.357671071E1,6.309529266E0,-3.765868835E0,-1.008003845E0,7.416737787E0
1.358667871E1,7.187902679E0,-3.542832642E0,-4.213737488E-1,8.024659737E0
1.359664571E1,7.809559937E0,-3.936064911E0,1.186732178E0,8.825540587E0
1.360661371E1,7.418572998E0,-4.579127655E0,1.618284760E0,8.866931880E0
1.361658171E1,6.624624023E0,-5.650000763E0,1.358125763E0,8.812074538E0
1.362654971E1,7.488028564E0,-6.753955078E0,1.114881592E0,1.014541482E1
1.363651671E1,1.103505249E1,-7.461383972E0,1.016236725E0,1.335954233E1
1.364648471E1,1.727662308E1,-6.450536041E0,7.905061340E-1,1.845849452E1
1.365645271E1,2.511372574E1,-4.056115265E0,8.196954346E-1,2.545237105E1
1.366642071E1,3.098257141E1,-2.922073517E0,-8.596623230E-1,3.113193319E1
1.367638771E1,3.377097290E1,-3.555256805E0,-3.913910980E0,3.418241011E1
1.368635571E1,3.164299805E1,-3.631448364E0,-4.018992462E0,3.210325596E1
1.369632371E1,2.634805893E1,-2.701582031E0,3.668870544E-1,2.648874027E1
1.370629171E1,2.177312256E1,-2.776127014E0,6.322252808E0,2.284177374E1
1.371625971E1,2.027354095E1,-4.525090027E0,1.026714935E1,2.317125932E1
1.372622671E1,2.277588730E1,-5.604944458E0,1.023242157E1,2.559021094E1
1.373619471E1,2.975242950E1,-4.195475464E0,6.931635590E0,3.083596354E1
1.374616271E1,3.963338196E1,-2.854713593E0,3.548969879E0,3.989422944E1
1.375613071E1,5.148498642E1,-2.884950714E0,2.288890228E0,5.161652629E1
1.376609771E1,6.059758667E1,-2.469414825E0,3.425476685E0,6.074454223E1
1.377606571E1,6.118167206E1,-7.670050049E-1,6.507717133E0,6.153158274E1
1.378603371E1,5.186489639E1,-1.370998993E0,1.246278351E1,5.335886139E1
1.379600171E1,4.176509903E1,-7.951764221E0,1.774425064E1,4.606964816E1
1.380596871E1,3.491369659E1,-1.766895721E1,1.897948196E1,4.348998729E1
1.381593671E1,2.852273666E1,-2.465702545E1,1.730970428E1,4.148663970E1
1.382590471E1,2.299503159E1,-2.742806305E1,1.254062164E1,3.792541775E1
1.383587271E1,1.995769775E1,-2.745126480E1,6.882088623E0,3.463011381E1
1.384583971E1,1.968840775E1,-2.528272430E1,3.429667969E0,3.222750642E1
1.385580771E1,2.174228668E1,-2.097273697E1,2.075284424E0,3.028018381E1
1.386577571E1,2.402069870E1,-1.763078659E1,1.403780823E0,2.982966983E1
1.387574371E1,2.385768768E1,-1.745759674E1,6.755451965E-1,2.957048033E1
1.388571071E1,1.654733963E1,-1.840946732E1,-4.409829712E-1,2.475716869E1
1.389567871E1,5.788313141E0,-1.983106110E1,-2.471360779E-1,2.066002491E1
1.390564671E1,-3.414100342E0,-2.299218750E1,1.798959045E0,2.331379465E1
1.391561471E1,-1.218481155E1,-2.492990799E1,2.866688690E0,2.789601852E1
1.392558171E1,-1.974513977E1,-2.344858841E1,1.921703796E0,3.071481383E1
1.393554971E1,-2.397085236E1,-1.857562180E1,-5.486091614E-1,3.033078403E1
1.394551771E1,-2.100521942E1,-1.013632141E1,1.237925720E-1,2.332336981E1
1.395548571E1,-1.468191879E1,1.439706116E0,7.691305847E0,1.663693718E1
1.396545371E1,-9.332043915E0,1.260468842E1,1.643118118E1,2.271450921E1
1.397542071E1,-3.016377411E0,1.637070694E1,1.490465561E1,2.234384339E1
1.398538871E1,-1.755100250E0,1.271650589E1,5.399870911E0,1.392653958E1
1.399535671E1,-5.053042145E0,6.109096069E0,-3.356769562E0,8.609424580E0
1.400532471E1,-8.684789886E0,-1.531614990E0,-5.001698914E0,1.013846201E1
1.401529171E1,-1.245440094E1,-5.967191162E0,-3.366499329E-1,1.381422478E1
1.402525971E1,-1.320628738E1,-5.462889862E0,5.660928040E0,1.537189963E1
1.403522771E1,-7.368726654E0,-1.675016785E0,1.389754990E1,1.581915633E1
1.404519571E1,6.578819275E-1,5.287155304E0,2.327165634E1,2.387376821E1
1.405516271E1,7.997718658E0,1.236458771E1,2.803295517E1,3.166532975E1
1.406513071E1,1.279344589E1,1.419273605E1,2.268203247E1,2.965772431E1
1.407509871E1,1.418001251E1,1.102876556E1,8.017776947E0,1.967209119E1
1.408506671E1,1.015233810E1,6.406976624E0,-6.676715698E0,1.373673363E1
1.409503471E1,2.067201233E0,4.361031189E0,-1.461066696E1,1.538712134E1
1.410500171E1,-4.809348907E0,4.305047607E0,-1.610845230E1,1.735354452E1
1.411496971E1,-8.561446381E0,3.453618164E0,-1.199979630E1,1.514004471E1
1.412493771E1,-7.692952423E0,2.054178314E0,-6.248605957E0,1.012157310E1
1.413490571E1,-2.768343201E0,1.266366577E0,-1.594184875E0,3.436398376E0
1.414487271E1,3.211721191E0,1.670376434E0,1.954785004E0,4.114182161E0
1.415484071E1,9.817783813E0,3.182232513E0,3.845203857E0,1.101367675E1
1.416480871E1,1.603660172E1,5.742508392E0,4.117787018E0,1.752441631E1
1.417477671E1,1.896062119E1,8.004454651E0,2.373763733E0,2.071741307E1
1.418474371E1,1.833207825E1,9.132359161E0,-2.547702026E-1,2.048243112E1
1.419471171E1,1.409947998E1,8.140671387E0,-2.277364197E0,1.643935078E1
1.420467971E1,8.469088440E0,5.770799561E0,-1.778002625E0,1.040138836E1
1.421464771E1,3.055745544E0,3.090623016E0,3.062631226E-1,4.356986179E0
1.422461471E1,-4.321513367E-1,4.272116089E-1,1.805245972E0,1.904777560E0
1.423458271E1,-1.685794373E0,-1.685494995E0,2.463576965E0,3.428120113E0
1.424455071E1,-1.550775146E0,-2.711461487E0,2.263742523E0,3.857649175E0
1.425451871E1,-3.255729675E-1,-2.652184753E0,1.743424530E0,3.190550237E0
1.426448671E1,7.390132141E-1,-1.936522980E0,9.231303406E-1,2.269015515E0
1.427445400E1,1.191522217E0,-1.090632019E0,3.023712158E-1,1.643359896E0
1.428442200E1,1.978884888E0,-2.591111755E-1,-7.125183105E-2,1.997048027E0
1.429439000E1,3.489244080E0,5.662724304E-1,1.511856079E-2,3.534928186E0
1.430435800E1,5.429060211E0,1.639989624E0,7.466473389E-1,5.720292212E0
1.431432500E1,6.068530426E0,2.635269928E0,1.509161682E0,6.785961841E0
1.432429300E1,4.820575562E0,2.706222382E0,1.906884613E0,5.847888273E0
1.433426100E1,2.870879974E0,1.520088959E0,2.099084930E0,3.867658182E0
1.434422900E1,9.403445435E-1,-3.839515686E-1,1.723815308E0,2.000801310E0
1.435419600E1,-8.885522461E-1,-2.017803955E0,1.028361511E0,2.432814274E0
1.436416400E1,-2.489622803E0,-2.952909393E0,7.562274170E-1,3.935705209E0
1.437413200E1,-3.703897705E0,-3.085383911E0,7.557783508E-1,4.879513603E0
1.438410000E1,-4.177961884E0,-2.646346893E0,7.737409973E-1,5.005715984E0
1.439406800E1,-3.782783661E0,-2.038161621E0,8.771759033E-1,4.385543590E0
1.440403500E1,-2.658621368E0,-1.511556702E0,8.252339172E-1,3.167661955E0
1.441400300E1,-8.897497559E-1,-6.274951172E-1,6.574328613E-1,1.271857978E0
1.442397100E1,1.388213196E0,6.671626282E-1,5.318440247E-1,1.629447733E0
1.443393900E1,3.702999573E0,1.938917999E0,6.559359741E-1,4.231059069E0
1.444390600E1,5.724845123E0,2.666405182E0,1.257235565E0,6.439270886E0
1.445387400E1,6.779252472E0,2.450703735E0,2.137704620E0,7.518909091E0
1.446384200E1,6.946005707E0,1.033001862E0,2.719245300E0,7.530496871E0
1.447381000E1,6.372248840E0,-9.472302246E-1,3.657793579E0,7.408255817E0
1.448377700E1,5.929319916E0,-2.756966858E0,4.196822662E0,7.769879110E0
1.449374500E1,7.512727203E0,-4.658612366E0,3.831282806E0,9.634441714E0
1.450371300E1,1.164578247E1,-6.814429321E0,2.425106964E0,1.370918816E1
1.451368100E1,1.711690521E1,-9.650880890E0,-2.847079468E-1,1.965220101E1
1.452364900E1,2.167118454E1,-1.290226959E1,-2.652783508E0,2.536032453E1
1.453361600E1,2.408925613E1,-1.408196640E1,-4.586612091E0,2.827774831E1
1.454358400E1,2.534050415E1,-1.322065750E1,-7.000791779E0,2.942682485E1
1.455355200E1,2.665028046E1,-1.263702118E1,-8.636290741E0,3.073299970E1
1.456352000E1,2.940904358E1,-1.238629257E1,-8.453221436E0,3.301165007E1
1.457348700E1,3.177412537E1,-1.160072617E1,-4.599485321E0,3.413688849E1
1.458345500E1,3.202380615E1,-9.642348633E0,2.868335266E0,3.356674537E1
1.459342300E1,3.155123886E1,-7.927514648E0,8.307125244E0,3.357580218E1
1.460339100E1,3.026137115E1,-7.959098969E0,9.105714569E0,3.258852372E1
1.461335800E1,2.992427216E1,-9.130862274E0,7.590415649E0,3.219392986E1
1.462332600E1,2.936293945E1,-9.169032898E0,4.972958679E0,3.116061128E1
1.463329400E1,2.803145828E1,-8.193661194E0,6.747967529E-1,2.921222497E1
1.464326200E1,2.569421860E1,-6.666985931E0,-4.212240601E0,2.687721231E1
1.465323000E1,2.321567276E1,-4.334236908E0,-7.881410522E0,2.489718263E1
1.466319700E1,2.089145599E1,-2.187401276E0,-8.620723114E0,2.270582579E1
1.467316500E1,1.894640076E1,-1.289268951E0,-7.202721863E0,2.031028110E1
1.468313300E1,1.808299622E1,-2.529140625E0,-5.102439423E0,1.895853878E1
1.469310100E1,1.629840729E1,-4.606071625E0,-3.350632324E0,1.726501413E1
1.470306800E1,1.320029984E1,-5.272785187E0,-1.367855530E0,1.428009832E1
1.471303600E1,1.009845016E1,-4.384382629E0,9.924362183E-1,1.105379738E1
1.472300400E1,8.027806091E0,-2.614313507E0,2.274520111E0,8.743783362E0
1.473297200E1,7.595205688E0,-7.072792053E-1,2.113455048E0,7.915433378E0
1.474293900E1,8.816665649E0,8.761280823E-1,9.509724426E-1,8.910978744E0
1.475290700E1,1.047985703E1,1.988315277E0,-4.980143738E-1,1.067842775E1
1.476287500E1,1.120659576E1,2.943179626E0,-2.022294617E0,1.176179282E1
1.477284300E1,1.035366943E1,3.523223419E0,-3.760030975E0,1.156500787E1
1.478281100E1,8.360264740E0,3.396886139E0,-5.183870087E0,1.040698665E1
1.479277800E1,6.211333466E0,2.655777283E0,-5.604495392E0,8.777481700E0
1.480274600E1,4.214635620E0,1.814376984E0,-4.619992676E0,6.511485973E0
1.481271400E1,2.824027405E0,1.199156342E0,-2.547103271E0,3.987585960E0
1.482268200E1,2.040257263E0,8.457412720E-1,-8.379574585E-1,2.362223677E0
1.483264900E1,1.843117218E0,8.565188599E-1,1.960922241E-2,2.032508341E0
1.484261700E1,2.514471130E0,1.025517426E0,2.583627319E-1,2.727820074E0
1.485258500E1,4.661755829E0,1.318607941E0,-1.372645569E-1,4.846600444E0
1.486255300E1,7.416177979E0,1.526076508E0,-8.925938416E-1,7.623996923E0
1.487252100E1,9.449848938E0,1.272653503E0,-1.160087585E0,9.605472143E0
1.488248800E1,1.090197922E1,6.569837952E-1,-8.449928284E-1,1.095439599E1
1.489245600E1,1.168125870E1,-3.721261597E-1,1.529818726E-1,1.168818575E1
1.490242400E1,1.138816818E1,-1.393901367E0,1.334025879E0,1.155045283E1
1.491239200E1,1.064211960E1,-1.875300293E0,2.082469482E0,1.100491435E1
1.492235900E1,9.755363617E0,-1.678459625E0,2.534679108E0,1.021806949E1
1.493232700E1,9.044641571E0,-1.033600616E0,2.683020630E0,9.490651773E0
1.494229500E1,8.996890869E0,-2.802172852E-1,2.591411133E0,9.366855326E0
1.495226300E1,9.548344116E0,2.619552612E-2,2.583777008E0,9.891787765E0
1.496223000E1,1.020323227E1,-2.893482971E-1,2.642454987E0,1.054382471E1
1.497219800E1,1.084180435E1,-1.051563263E0,2.386038208E0,1.115094997E1
1.498216600E1,1.165670975E1,-2.015408936E0,1.872605896E0,1.197695321E1
1.499213400E1,1.250334915E1,-3.400179291E0,1.435365143E0,1.303668793E1
1.500210200E1,1.318233719E1,-5.192102966E0,1.403331757E0,1.423732022E1
1.501206900E1,1.301154236E1,-6.758595428E0,1.890119476E0,1.478348397E1
1.502203700E1,1.182046921E1,-7.424410858E0,2.489323425E0,1.417893155E1
1.503200500E1,1.011296997E1,-7.235354004E0,3.016676788E0,1.279542293E1
1.504197300E1,8.524772644E0,-6.534661102E0,3.001258850E0,1.115262745E1
1.505194000E1,7.405550079E0,-5.382956085E0,2.386187897E0,9.461093006E0
1.506190800E1,6.793622589E0,-4.092339935E0,1.836979980E0,8.140948930E0
1.507187600E1,6.568341064E0,-2.980751495E0,1.342857513E0,7.336978269E0
1.508184400E1,6.827601929E0,-2.223176880E0,8.890013123E-1,7.235259972E0
1.509181100E1,7.417824554E0,-1.872306519E0,7.773335266E-1,7.689856971E0
1.510177900E1,7.964038696E0,-1.901346130E0,5.694158936E-1,8.207634490E0
1.511174700E1,7.997419281E0,-1.998643799E0,2.142045593E-1,8.246161276E0
1.512171500E1,6.883884888E0,-2.132914581E0,1.098715210E-1,7.207584027E0
1.513168300E1,5.140610046E0,-2.294728088E0,-6.735992432E-3,5.629537638E0
1.514165000E1,3.384911041E0,-2.155816956E0,-2.622546387E-1,4.021684597E0
1.515161800E1,1.981728973E0,-1.677860870E0,-5.739065552E-1,2.659292304E0
1.516158600E1,8.690927124E-1,-1.129850464E0,-9.449848938E-1,1.710228249E0
1.517155400E1,1.907034302E-1,-6.732998657E-1,-1.366658020E0,1.535400486E0
1.518152200E1,5.734574890E-1,-5.089416504E-2,-1.936223602E0,2.020001373E0
1.519148900E1,1.708846436E0,7.896080017E-1,-1.847458191E0,2.637563024E0
1.520145700E1,2.371817780E0,1.517394562E0,-1.731748810E0,3.305595223E0
1.521142500E1,2.383643188E0,1.921853485E0,-1.742227020E0,3.522872501E0
1.522139300E1,2.003882904E0,1.675465851E0,-1.740730133E0,3.138928783E0
1.523136000E1,1.094523926E0,8.363108826E-1,-2.091301117E0,2.504184274E0
1.524132800E1,6.065386963E-1,7.364685059E-2,-2.015708313E0,2.106274686E0
1.525129600E1,8.529263306E-1,-7.484436035E-3,-9.717791748E-1,1.293017443E0
1.526126400E1,3.275638275E0,9.274713135E-1,8.192463684E-1,3.501595887E0
1.527123146E1,8.001610565E0,2.587968292E0,2.559976501E0,8.790724157E0
1.528119946E1,1.285377045E1,3.726201324E0,4.515210571E0,1.412413245E1
1.529116746E1,1.560684540E1,3.526067505E0,5.461392975E0,1.690661375E1
1.530113546E1,1.629376694E1,1.921703796E0,4.762646027E0,1.708398618E1
1.531110346E1,1.533186722E1,-1.016386414E-1,3.294798431E0,1.568222495E1
1.532107046E1,1.345237564E1,-7.851173401E-1,1.594035187E0,1.356922134E1
1.533103846E1,1.302980438E1,1.103205872E-1,1.377136230E0,1.310284233E1
1.534100646E1,1.470302490E1,3.763174438E-1,2.579286346E0,1.493228965E1
1.535097446E1,1.830378708E1,-1.169517975E0,3.565585327E0,1.868447999E1
1.536094146E1,2.375709686E1,-2.955005035E0,3.275039520E0,2.416314528E1
1.537090946E1,2.954780502E1,-5.048551483E0,1.698667603E0,3.002409242E1
1.538087746E1,3.444681747E1,-8.269253998E0,-3.683839417E-1,3.542738351E1
1.539084546E1,3.912204529E1,-1.072115524E1,-1.250948639E0,4.058377101E1
1.540081346E1,4.046400467E1,-1.050365753E1,1.487905884E-1,4.180531825E1
1.541078046E1,3.701667343E1,-8.658444672E0,2.445464630E0,3.809439688E1
1.542074846E1,3.274081512E1,-9.999805298E0,4.066743164E0,3.447456281E1
1.543071646E1,2.974719040E1,-1.505629028E1,3.711082764E0,3.354637609E1
1.544068446E1,2.858455811E1,-1.948093918E1,3.831432495E0,3.480321578E1
1.545065146E1,2.898273010E1,-1.934083054E1,5.385201416E0,3.525715196E1
1.546061946E1,3.042947159E1,-1.670705750E1,5.895939331E0,3.521137049E1
1.547058746E1,3.241628998E1,-1.544233749E1,4.744234314E0,3.621863336E1
1.548055546E1,3.185211319E1,-1.643312714E1,1.115180969E0,3.585872852E1
1.549052246E1,2.715637802E1,-1.802282135E1,-1.587748260E0,3.263145570E1
1.550049046E1,1.993434631E1,-1.829794922E1,-1.400337982E0,2.709527736E1
1.551045846E1,1.331795517E1,-1.727452744E1,-1.072819061E0,2.183868514E1
1.552042646E1,8.714278564E0,-1.544548096E1,-1.256337433E0,1.777863652E1
1.553039446E1,6.096522217E0,-1.251996460E1,-1.007854156E0,1.396183608E1
1.554036146E1,3.683989105E0,-9.192683716E0,-8.090675354E-1,9.936387669E0
1.555032946E1,7.158114624E-1,-5.805677032E0,-9.264234924E-1,5.922544415E0
1.556029746E1,-1.759291534E0,-2.133513336E0,-8.265811157E-1,2.886212431E0
1.557026546E1,-2.037113800E0,1.894909515E0,2.929408264E-1,2.797557691E0
1.558023346E1,-3.508703613E-1,5.942342834E0,2.228565674E0,6.356182292E0
1.559020046E1,9.874964905E-1,8.465046844E0,2.637814636E0,8.921335856E0
1.560016846E1,8.431965637E-1,8.383616180E0,1.040785675E0,8.489949089E0
1.561013646E1,-3.141966248E-1,6.790778503E0,-1.016835480E0,6.873670533E0
1.562010446E1,-4.775070190E-1,4.468208313E0,-1.310075684E0,4.680726095E0
1.563007146E1,9.089099121E-1,1.710942078E0,9.175918579E-2,1.939551435E0
1.564003946E1,2.801723785E0,-8.116122437E-1,2.059267731E0,3.570567769E0
1.565000746E1,3.814966736E0,-2.763553162E0,3.831731873E0,6.072344392E0
1.565997546E1,3.476221161E0,-3.435805206E0,4.765190735E0,6.826119960E0
1.566994346E1,1.823208618E0,-2.276316376E0,4.859644318E0,5.667614031E0
1.567991046E1,9.851014709E-1,5.284011841E-1,4.704566803E0,4.835553900E0
1.568987846E1,1.035097504E0,3.339255981E0,4.616250458E0,5.790667115E0
1.569984646E1,1.294657745E0,4.844076691E0,5.116210785E0,7.163576653E0
1.570981446E1,1.258882141E0,4.978946228E0,6.007756805E0,7.903659382E0
1.571978146E1,7.033872986E-1,3.993545380E0,6.571783905E0,7.722143620E0
1.572974946E1,2.764750671E-1,2.499202881E0,6.194119263E0,6.685025575E0
1.573971746E1,3.701802063E-1,1.171912994E0,5.030289459E0,5.178245407E0
1.574968546E1,6.872209167E-1,4.478686523E-1,3.586392059E0,3.679003523E0
1.575965346E1,1.002016296E0,3.695814514E-1,1.542841644E0,1.876429441E0
1.576962046E1,1.229692841E0,7.113208008E-1,-5.155279541E-1,1.511254722E0
1.577958846E1,1.080153809E0,1.152752838E0,-1.990111542E0,2.540888684E0
1.578955646E1,1.153650970E0,1.502126312E0,-2.762505341E0,3.349437233E0
1.579952446E1,1.921853485E0,1.801952820E0,-3.009791107E0,3.999924661E0
1.580949246E1,2.289638672E0,1.972298584E0,-2.938090210E0,4.214828708E0
1.581945946E1,2.076781311E0,1.666783905E0,-2.637964325E0,3.748338963E0
1.582942746E1,1.508413239E0,7.771838379E-1,-2.151925049E0,2.740457376E0
1.583939546E1,7.665559387E-1,-3.094065857E-1,-1.831591187E0,2.009494145E0
1.584936346E1,7.783813477E-2,-1.343007202E0,-1.641486511E0,2.122311261E0
1.585933046E1,-5.237608337E-1,-2.039059753E0,-1.230141907E0,2.438306625E0
1.586929846E1,-9.304650879E-1,-2.386636963E0,-8.292755127E-1,2.692489396E0
1.587926646E1,-1.252295837E0,-2.493814087E0,-5.601351929E-1,2.846244016E0
1.588923446E1,-1.337917786E0,-2.407743073E0,-5.915698242E-1,2.817304662E0
1.589920246E1,-1.013991394E0,-2.180814972E0,-5.535488892E-1,2.467903738E0
1.590916946E1,-1.609153748E-1,-1.782343597E0,-1.460961914E-1,1.795546311E0
1.591913746E1,1.240470428E0,-1.157093811E0,5.089416504E-3,1.696366374E0
1.592910546E1,2.143841858E0,-4.956193542E-1,1.529818726E-1,2.205697148E0
1.593907346E1,1.381327515E0,-3.219804382E-1,6.984475708E-1,1.581001617E0
1.594904046E1,-1.083746338E-1,-6.135740662E-1,7.863148499E-1,1.003249340E0
1.595900846E1,-1.621877289E0,-1.273551636E0,3.603007507E-1,2.093379168E0
1.596897646E1,-2.964285736E0,-1.961820374E0,-1.419049072E-1,3.557508413E0
1.597894446E1,-3.863765259E0,-2.284399567E0,-4.399351501E-1,4.510067216E0
1.598891246E1,-3.956871643E0,-2.075134735E0,-6.131250000E-1,4.509871355E0
1.599887946E1,-2.592159576E0,-1.395098877E0,-8.403524780E-1,3.061337034E0
1.600884746E1,2.941383362E-1,-2.631527710E-1,-1.163680115E0,1.228787268E0
1.601881546E1,2.671045532E0,1.057999878E0,-1.046174469E0,3.057503720E0
1.602878346E1,4.621339874E0,2.125579834E0,-7.482939148E-1,5.141479908E0
1.603875146E1,6.276448059E0,1.948348389E0,-2.962339783E-1,6.578572509E0
1.604871846E1,6.940766602E0,7.497908020E-1,4.011657715E-2,6.981263253E0
1.605868646E1,8.407266998E0,-5.938151550E-1,2.053729248E-1,8.430713662E0
1.606865446E1,1.238509506E1,-3.346590729E0,5.737568665E-1,1.284209664E1
1.607862246E1,1.932990326E1,-8.248297577E0,8.190966797E-1,2.103213000E1
1.608858946E1,2.859608414E1,-1.396955017E1,1.290616150E0,3.185200229E1
1.609855746E1,3.699422012E1,-1.730805771E1,2.307900696E0,4.090803821E1
1.610852546E1,4.026461929E1,-1.487022720E1,5.306465149E-1,4.292603883E1
1.611849346E1,4.345987473E1,-1.127380600E1,-1.911524963E0,4.493899577E1
1.612846146E1,4.769486801E1,-1.308923080E1,-2.023043060E0,4.949970809E1
1.613842846E1,4.817536880E1,-1.656530228E1,3.660937042E0,5.107521766E1
1.614839646E1,4.245097275E1,-1.362736176E1,1.060963715E1,4.582962444E1
1.615836446E1,3.265728882E1,-5.434149628E0,1.321047867E1,3.564470847E1
1.616833246E1,2.461840576E1,1.480571136E0,1.427012512E1,2.849376185E1
1.617829946E1,1.952539673E1,1.668131104E0,1.403720947E1,2.410533195E1
1.618826746E1,1.603989487E1,-4.012406158E0,8.603059845E0,1.863840844E1
1.619823546E1,1.357631790E1,-9.352401581E0,7.782316589E-1,1.650422575E1
1.620820346E1,1.036474640E1,-1.089958420E1,-4.849465485E0,1.580336101E1
1.621817146E1,5.987099762E0,-9.634115753E0,-8.382568359E0,1.410421931E1
1.622813846E1,3.234174500E0,-7.457042999E0,-1.101469482E1,1.368907875E1
1.623810646E1,2.566113739E0,-5.253026276E0,-1.205592957E1,1.339868137E1
1.624807446E1,3.941304016E0,-3.562741241E0,-1.055395294E1,1.181579135E1
1.625804246E1,6.455475769E0,-2.762056274E0,-7.263944550E0,1.010282202E1
1.626800975E1,7.922574921E0,-2.296224976E0,-3.594325562E0,8.997722976E0
1.627797675E1,8.347840576E0,-1.302441559E0,3.659889221E-1,8.456757309E0
1.628794475E1,7.692203979E0,7.933502197E-2,4.133354645E0,8.732749666E0
1.629791275E1,5.545518036E0,1.586251373E0,7.055278473E0,9.112953310E0
1.630788075E1,2.656525726E0,3.091970215E0,7.954009552E0,8.937766874E0
1.631784775E1,1.583706665E-1,3.808530121E0,6.759044495E0,7.759810915E0
1.632781575E1,-1.714384918E0,3.071313171E0,4.291276245E0,5.548615328E0
1.633778375E1,-2.485880585E0,1.817370758E0,2.146236877E0,3.753501231E0
1.634775175E1,-2.230361938E0,7.453001404E-1,4.135899353E-1,2.387685765E0
1.635771975E1,-1.986219635E0,-8.547225952E-2,-3.833528137E-1,2.024681043E0
1.636768675E1,-1.620679779E0,-4.442761230E-1,-4.743635559E-1,1.746140030E0
1.637765475E1,-1.111738129E0,-5.372328186E-1,-3.453318787E-1,1.282121240E0
1.638762275E1,-3.559597778E-1,-4.635859680E-1,2.427951050E-1,6.329050294E-1
1.639759075E1,7.726931763E-1,-5.284011841E-2,1.588796082E0,1.767517981E0
1.640755875E1,2.459984436E0,7.174580383E-1,3.240012360E0,4.130853369E0
1.641752575E1,5.081782379E0,1.691482544E0,4.580025787E0,7.047145632E0
1.642749375E1,7.576644287E0,2.607727203E0,5.144951019E0,9.522410452E0
1.643746175E1,8.939111023E0,3.343447266E0,4.329446869E0,1.048000266E1
1.644742975E1,8.769962769E0,3.656596069E0,2.092947693E0,9.729510359E0
1.645739675E1,7.711663513E0,3.387006683E0,-1.162781982E0,8.502566104E0
1.646736475E1,6.734495544E0,2.655328217E0,-3.921545105E0,8.233025822E0
1.647733275E1,6.340963898E0,1.668879547E0,-4.471202087E0,7.936285668E0
1.648730075E1,7.266189880E0,1.142274628E0,-3.086431732E0,7.976739155E0
1.649726875E1,9.093440094E0,1.350491638E0,-8.487350464E-1,9.232271204E0
1.650723575E1,1.214903595E1,1.910926208E0,9.870474243E-1,1.233794862E1
1.651720375E1,1.575982727E1,1.771266632E0,2.556084595E0,1.606372029E1
1.652717175E1,1.868160141E1,2.903961182E-1,3.141666870E0,1.894615085E1
1.653713975E1,2.088367218E1,-2.719394989E0,2.768343201E0,2.124115338E1
1.654710775E1,2.285656952E1,-6.816075897E0,1.634151764E0,2.390715610E1
1.655707475E1,2.496164200E1,-1.103415436E1,3.135978699E-1,2.729348782E1
1.656704275E1,2.703108856E1,-1.367750748E1,2.122586060E-1,3.029519786E1
1.657701075E1,2.904140808E1,-1.208781326E1,1.686243439E0,3.150177820E1
1.658697875E1,3.399999664E1,-7.873626709E0,4.433779907E0,3.518028103E1
1.659694575E1,4.097204819E1,-4.660708008E0,8.218060455E0,4.204720501E1
1.660691375E1,4.606745224E1,-4.332440643E0,8.914711761E0,4.712167531E1
1.661688175E1,4.679104752E1,-8.876840515E0,7.087012482E0,4.815003812E1
