"Time (s)","Acceleration x (m/s^2)","Acceleration y (m/s^2)","Acceleration z (m/s^2)","Absolute acceleration (m/s^2)"
-1.701666974E-3,2.718347168E-1,6.703959045E0,6.183341675E0,9.124180800E0
8.266333025E-3,1.020727386E0,6.177803192E0,5.821094971E0,8.549402513E0
1.823333325E-2,1.801204376E0,6.044280853E0,6.362519073E0,8.958756454E0
2.820133325E-2,1.587149506E0,6.148613892E0,7.826474762E0,1.007860127E1
3.816933325E-2,5.899232483E-1,6.584657135E0,9.190588074E0,1.132133509E1
4.813733324E-2,-2.248324585E-1,7.097790070E0,9.455237732E0,1.182500292E1
5.810533324E-2,-8.675958252E-1,7.425608368E0,8.591683502E0,1.138900380E1
6.807333324E-2,-1.515298920E0,7.581733704E0,7.187902679E0,1.055674011E1
7.804033300E-2,-1.250948639E0,7.599846039E0,6.261778564E0,9.926348931E0
8.800833300E-2,-7.542814636E-1,7.029831390E0,5.997727661E0,9.271472753E0
9.797633300E-2,-1.230441284E-1,6.699468384E0,6.358178101E0,9.237123212E0
1.079443330E-1,1.196012878E-1,6.670578461E0,6.956184540E0,9.638434770E0
1.179123330E-1,-9.327104187E-1,6.583010559E0,6.775809631E0,9.493027594E0
1.278803330E-1,-6.875202942E-1,6.521638184E0,6.624025269E0,9.321059999E0
1.378483330E-1,-2.662962341E-1,6.667884064E0,6.468498688E0,9.293711145E0
1.478153332E-1,-4.451742554E-1,6.885082397E0,6.391858063E0,9.405232014E0
1.577833332E-1,-1.079255676E-1,7.392377472E0,7.200326843E0,1.032005810E1
1.677513332E-1,5.956114197E-1,7.950267334E0,7.866441650E0,1.120010749E1
1.777193332E-1,8.223898315E-1,8.014034729E0,7.935298462E0,1.130796354E1
1.876873332E-1,5.342390442E-1,7.500003662E0,7.787256317E0,1.082482458E1
1.976553332E-1,6.032455444E-2,6.775210876E0,7.705675964E0,1.026082665E1
2.076233332E-1,-5.822891235E-1,6.578669586E0,7.563920746E0,1.004145663E1
2.175902915E-1,-1.237027588E0,6.719975739E0,6.634503479E0,9.523914510E0
2.275582915E-1,-2.020049286E0,6.831942902E0,5.523813171E0,9.014907370E0
2.375262915E-1,-2.786455536E0,6.947352905E0,4.850363617E0,8.919421173E0
2.474942915E-1,-3.102448425E0,6.788084106E0,4.733007660E0,8.837682591E0
2.574622915E-1,-3.215613098E0,6.825356598E0,4.982089691E0,9.041398010E0
2.674302915E-1,-3.478616180E0,7.155569916E0,5.068160706E0,9.433408943E0
2.773972913E-1,-5.263803864E0,7.061565399E0,5.535638580E0,1.040272231E1
2.873652913E-1,-9.777367859E0,5.134023743E0,6.826554108E0,1.298294893E1
2.973332913E-1,-9.532776489E0,4.746629333E0,6.797215118E0,1.263354467E1
3.073012913E-1,-3.509452057E0,6.452631683E0,4.703369293E0,8.722063522E0
3.172692913E-1,-6.715036011E-1,6.160289612E0,4.459077301E0,7.634360194E0
3.272372917E-1,-9.553134155E-1,5.561983795E0,1.817520447E0,5.928884215E0
3.372052917E-1,-4.691693573E0,7.748337250E0,1.828148346E0,9.240716698E0
3.471722915E-1,-6.287974091E0,8.993298340E0,7.920479279E0,1.353336710E1
3.571402915E-1,-5.676645355E0,9.256600800E0,8.385113068E0,1.371929597E1
3.671082915E-1,-3.962110748E0,9.551786957E0,5.523064728E0,1.172344658E1
3.770762915E-1,-1.628463593E0,9.119635620E0,4.544250183E0,1.031842320E1
3.870442915E-1,-1.974543915E0,8.059989166E0,4.884043579E0,9.628921576E0
3.970122915E-1,-1.958227844E0,7.642507324E0,6.485862579E0,1.021317717E1
4.069802915E-1,-9.818083191E-1,6.274502106E0,9.331744537E0,1.128781557E1
4.169472917E-1,-7.652087402E-1,6.574627991E0,6.662345581E0,9.391385748E0
4.269152917E-1,-2.529290314E0,7.039261780E0,6.041287079E0,9.614866898E0
4.368832917E-1,-2.722388763E0,7.658224640E0,7.938741302E0,1.136148840E1
4.468512917E-1,-2.917433167E0,7.921227722E0,6.768325195E0,1.081977314E1
4.568192917E-1,-2.788102112E0,7.928712158E0,4.355941772E0,9.466373043E0
4.667872917E-1,-2.623743896E0,7.739505615E0,3.169059906E0,8.765096685E0
4.767542914E-1,-3.445534973E0,6.932234344E0,2.601440277E0,8.166705319E0
4.867222914E-1,-4.202959900E0,6.981781311E0,3.650309143E0,8.929440018E0
4.966902914E-1,-4.301754456E0,7.869884491E0,5.251679077E0,1.039328179E1
5.066582914E-1,-5.343438263E0,7.971223755E0,4.791985016E0,1.072640951E1
5.166262914E-1,-5.792055359E0,7.669600983E0,4.325405273E0,1.053944094E1
5.265942914E-1,-6.133195953E0,7.741451569E0,4.298161926E0,1.077127481E1
5.365622914E-1,-6.083499298E0,7.627538452E0,3.126398621E0,1.024512932E1
5.465292917E-1,-5.894891510E0,6.903643799E0,1.841470642E0,9.262886037E0
5.564972917E-1,-5.895789642E0,6.465504913E0,1.327439575E0,8.850151700E0
5.664652917E-1,-5.809419250E0,6.237678680E0,1.698218536E0,8.691486268E0
5.764332917E-1,-6.086044006E0,5.780379639E0,6.704557800E-1,8.420346274E0
5.864012917E-1,-6.409221954E0,5.933361511E0,-4.400848389E-2,8.734119396E0
5.963692917E-1,-6.893315277E0,6.222709808E0,-2.668949890E-1,9.290379207E0
6.063372917E-1,-7.126230927E0,6.290369110E0,-2.438429260E0,9.813146693E0
6.163042914E-1,-7.045548706E0,5.773194580E0,-4.911436615E0,1.034851399E1
6.262722914E-1,-6.807244263E0,5.568869476E0,-5.817502441E0,1.054486682E1
6.362402914E-1,-6.169420624E0,6.119125214E0,-4.908293152E0,9.979818930E0
6.462082914E-1,-6.039191437E0,6.336622925E0,-2.941533051E0,9.234567667E0
6.561762914E-1,-6.478827209E0,6.068829803E0,-5.478607178E-1,8.894158114E0
6.661442914E-1,-6.089935913E0,5.975723419E0,7.785310364E-1,8.567537592E0
6.761112916E-1,-5.513933716E0,5.850134583E0,3.589535522E-1,8.047135348E0
6.860792916E-1,-5.825735321E0,4.924908600E0,-4.399351501E-1,7.641168738E0
6.960472916E-1,-6.253545685E0,3.698209534E0,-1.419498138E0,7.402605106E0
7.060152916E-1,-6.127657471E0,4.395459595E0,-1.049617310E0,7.613799815E0
7.159832916E-1,-7.619754639E0,5.691015472E0,9.241781616E-1,9.555230146E0
7.259512916E-1,-8.265511780E0,7.421566772E0,2.556833038E0,1.139893563E1
7.359192916E-1,-7.202272797E0,7.423213348E0,2.276166687E0,1.059045630E1
7.458862914E-1,-6.940467224E0,6.575077057E0,9.885443115E-1,9.611396540E0
7.558542914E-1,-7.672445068E0,5.927972717E0,1.630110168E-1,9.697105055E0
7.658222914E-1,-7.986042938E0,5.724845123E0,-6.875202942E-1,9.850046581E0
7.757902914E-1,-8.125253448E0,5.383704529E0,-1.317859497E0,9.835688675E0
7.857582914E-1,-7.992928619E0,5.071004791E0,-1.039737854E0,9.522764951E0
7.957262914E-1,-7.609875183E0,5.168452148E0,-9.812095642E-1,9.251263164E0
8.056932916E-1,-7.901169434E0,5.470523987E0,-1.454225922E0,9.719561931E0
8.156612916E-1,-8.062683563E0,5.999673615E0,-1.833986206E0,1.021599017E1
8.256292916E-1,-9.670340424E0,6.503974915E0,-1.892664185E0,1.180675024E1
8.355972916E-1,-1.202180054E1,7.315138092E0,-8.226892090E-1,1.409651556E1
8.455652916E-1,-1.203647003E1,7.707322540E0,1.694476318E-1,1.429363999E1
8.555332916E-1,-1.078746735E1,7.414980469E0,1.797761536E-1,1.309136000E1
8.655012916E-1,-8.484356689E0,6.339167633E0,-4.076023865E-1,1.059884401E1
8.754682913E-1,-5.921087036E0,4.708309021E0,-3.953279114E-1,7.575204927E0
8.854362913E-1,-4.883893890E0,2.956950989E0,3.391946411E-1,5.719355880E0
8.954042913E-1,-4.574187927E0,1.408421173E0,1.011596375E0,4.891847567E0
9.053722913E-1,-4.177213440E0,3.887416077E-1,1.362616425E0,4.411003931E0
9.153402913E-1,-4.186194763E0,5.816903687E-1,2.208956451E0,4.768865576E0
9.253082913E-1,-4.750820618E0,1.646126862E0,3.563938751E0,6.162928655E0
9.352752916E-1,-6.124663696E0,3.057691498E0,4.459077301E0,8.169721725E0
9.452432916E-1,-7.110064545E0,5.012626190E0,4.451293488E0,9.772075157E0
9.552112916E-1,-7.201973419E0,7.013515320E0,3.980971527E0,1.081230561E1
9.651792916E-1,-7.440577240E0,8.514593811E0,3.180885315E0,1.174642621E1
9.751472916E-1,-7.703580322E0,8.988358612E0,2.192790070E0,1.203927193E1
9.851152916E-1,-7.723339233E0,7.890242157E0,6.807843018E-1,1.106206841E1
9.950822913E-1,-7.884254608E0,8.762628021E0,-2.846031647E0,1.212621197E1
1.005050291E0,-9.587113495E0,7.664511566E0,-7.208260345E0,1.423434227E1
1.015018291E0,-9.456135864E0,5.309309235E0,-6.405779114E0,1.259528785E1
1.024986291E0,-7.360344086E0,8.360264740E0,-2.029329987E0,1.132196413E1
1.034954291E0,-7.287146301E0,1.073552536E1,-7.161108398E-1,1.299487671E1
1.044922291E0,-6.731651459E0,1.102008362E1,1.254391479E-1,1.291406633E1
1.054890291E0,-6.906038818E0,8.834478607E0,1.797761536E0,1.135664259E1
1.064857292E0,-9.641450500E0,2.723286896E0,2.449057159E0,1.031366764E1
1.074825292E0,-8.793014832E0,-2.151475983E0,1.854792938E0,9.240466199E0
1.084793292E0,-4.390070801E0,3.342698822E0,2.138902130E0,5.917876255E0
1.094761292E0,-3.284170532E0,7.679181061E0,4.966671753E-1,8.366736289E0
1.104729292E0,-2.078278198E0,1.012030472E1,-1.118025055E0,1.039181350E1
1.114697292E0,-3.302731934E0,1.013242950E1,-4.183200989E0,1.144872641E1
1.124665292E0,-4.397854614E0,7.632627869E0,-4.483775940E0,9.884451430E0
1.134632291E0,-5.372178497E0,5.556894379E0,-1.807790680E0,7.937725372E0
1.144600291E0,-5.652994537E0,6.527476044E0,-4.631369019E-1,8.647472841E0
1.154568291E0,-6.212680664E0,7.413184204E0,-5.046006775E-1,9.685418056E0
1.164536291E0,-7.128326569E0,6.678511963E0,3.983216858E-1,9.776206927E0
1.174504291E0,-7.081623688E0,6.044879608E0,6.093827820E-1,9.330665084E0
1.184472291E0,-8.476123810E0,3.988605652E0,-3.204835510E-1,9.373172333E0
1.194439291E0,-7.535629578E0,1.631008301E0,-1.763632507E0,7.909254126E0
1.204407291E0,-4.485272827E0,1.101110229E0,-1.492995300E0,4.853776987E0
1.214375291E0,-4.148473206E0,2.354902954E0,-1.387913818E0,4.968068299E0
1.224343542E0,-4.423900452E0,3.739972687E0,-1.891766052E0,6.094019175E0
1.234311542E0,-3.266207886E0,3.917653198E0,-2.067051544E0,5.503528198E0
1.244279542E0,-2.564317474E0,5.142406311E0,-1.636696472E0,5.974850803E0
1.254246541E0,-1.732796631E0,7.638316040E0,-1.240470428E0,7.930020364E0
1.264214541E0,2.526745605E-1,1.063912582E1,-7.584727478E-1,1.066912010E1
1.274182541E0,4.022435303E0,1.439676178E1,3.150947571E-1,1.495145545E1
1.284150541E0,1.050006500E1,1.972972183E1,1.620380402E0,2.240845647E1
1.294118541E0,1.611324234E1,2.427636703E1,3.797153778E0,2.938361707E1
1.304086541E0,1.948393295E1,2.575364502E1,5.482349396E0,3.275561066E1
1.314054541E0,1.970352631E1,2.451167770E1,4.482279053E0,3.176699731E1
1.324021542E0,1.587942856E1,2.025393173E1,4.383634186E0,2.610736009E1
1.333989542E0,1.007524841E1,1.460737381E1,4.288432159E0,1.825586620E1
1.343957542E0,4.724475403E0,9.355844421E0,3.599265289E0,1.108184115E1
1.353925542E0,1.337019653E0,6.440955963E0,2.556383972E0,7.057523240E0
1.363893542E0,-3.165916443E-1,5.419180756E0,1.485660553E0,5.628049183E0
1.373861542E0,-1.120270386E0,4.432133331E0,3.757186890E-1,4.586935375E0
1.383828541E0,-8.440946960E-1,2.955753479E0,-2.065704346E-1,3.080851478E0
1.393796542E0,1.697470093E-1,2.707719269E0,-4.830455017E-1,2.755701479E0
1.403764542E0,1.277144165E0,3.435356140E0,-9.217831421E-1,3.779213303E0
1.413732542E0,2.243833923E0,4.857548676E0,-7.503895569E-1,5.403115240E0
1.423700542E0,3.613485718E0,6.660100250E0,-7.294331360E-1,7.612245863E0
1.433668542E0,4.363276520E0,7.948770447E0,-8.445437622E-1,9.106831928E0
1.443636542E0,4.427642670E0,8.848549347E0,-5.164260864E-1,9.907953424E0
1.453603541E0,4.692741394E0,9.642947388E0,-4.111949158E-1,1.073207051E1
1.463571541E0,5.300926666E0,1.066711761E1,-3.769161987E-1,1.191760410E1
1.473539541E0,5.692961426E0,1.179487244E1,-1.478924561E-1,1.309773636E1
1.483507541E0,4.915328522E0,1.174876831E1,6.466552734E-2,1.273570543E1
1.493475541E0,3.579356689E0,1.125838806E1,2.189945984E-1,1.181571220E1
1.503443541E0,2.810854797E0,1.060394897E1,4.134402466E-1,1.097795843E1
1.513410542E0,2.564916229E0,9.988578644E0,5.141807556E-1,1.032544820E1
1.523378542E0,2.703977051E0,9.815538483E0,-6.481521606E-2,1.018137950E1
1.533346542E0,2.097737732E0,9.805359650E0,-1.829196167E-1,1.002891026E1
1.543314542E0,1.816622314E0,1.004710693E1,-2.664459229E-2,1.021005310E1
1.553282542E0,1.826352081E0,1.022778122E1,2.728825378E-1,1.039314849E1
1.563250542E0,1.809287567E0,1.041025177E1,5.144801331E-1,1.057882570E1
1.573218542E0,1.858385468E0,1.059107574E1,3.637435913E-1,1.075903301E1
1.583185541E0,1.862277374E0,1.082818268E1,3.908372498E-1,1.099410619E1
1.593153541E0,1.789977722E0,1.102098175E1,7.065307617E-1,1.118772741E1
1.603121541E0,1.630559235E0,1.099822906E1,1.142274628E0,1.117696548E1
1.613089541E0,1.429676971E0,1.077878540E1,1.561253357E0,1.098470314E1
1.623057541E0,1.034199371E0,1.035980667E1,2.017654266E0,1.060500313E1
1.633025541E0,5.956114197E-1,9.935738525E0,2.251767426E0,1.020510213E1
1.642992542E0,3.664379883E-1,9.656569061E0,2.102378082E0,9.889570083E0
1.652960542E0,2.785707092E-1,9.454489288E0,1.902992706E0,9.648126791E0
1.662928542E0,3.603007507E-1,9.420509949E0,1.683998108E0,9.576621218E0
1.672896542E0,7.030879211E-1,9.698481903E0,1.581611023E0,9.851719509E0
1.682864542E0,1.223555603E0,1.023766068E1,1.602567444E0,1.043431870E1
1.692832542E0,1.964664459E0,1.104313568E1,1.563947754E0,1.132504679E1
1.702799541E0,2.809507599E0,1.181957108E1,1.188378754E0,1.220687664E1
1.712767541E0,3.635489960E0,1.242117004E1,8.134085083E-1,1.296780189E1
1.722735541E0,4.387526093E0,1.282622772E1,9.851014709E-1,1.359164919E1
1.732703541E0,4.834496613E0,1.281440231E1,1.012943573E0,1.373343798E1
1.742671541E0,4.955295410E0,1.234228409E1,9.698332214E-1,1.333519800E1
1.752639541E0,4.882696381E0,1.154264694E1,5.080435181E-1,1.254318662E1
1.762607541E0,4.494703217E0,1.039977356E1,4.394860840E-1,1.133802430E1
1.772574542E0,3.309318237E0,9.076076202E0,8.584648132E-1,9.698644661E0
1.782542542E0,2.638114014E0,8.162975006E0,1.188528442E0,8.660623901E0
1.792510542E0,2.985840912E0,7.178172913E0,1.785187683E0,7.976735383E0
1.802478542E0,2.616708527E0,6.320606232E0,1.040635986E0,6.919548389E0
1.812446542E0,2.391427002E0,5.481750641E0,-7.753875732E-2,5.981180941E0
1.822414542E0,2.164648590E0,4.506229248E0,-4.366419983E-1,5.018213008E0
1.832381541E0,1.745370483E0,3.234773254E0,1.968556366E0,4.169567160E0
1.842349541E0,1.504671021E0,2.576142883E0,1.265917511E0,3.240847756E0
1.852317541E0,7.213499451E-1,1.869312744E0,1.846859436E0,2.724989111E0
1.862285541E0,-4.914729767E0,-1.344055023E0,1.315928513E1,1.411126634E1
1.872253541E0,-3.558400269E0,1.656455383E0,2.518063660E0,4.663335877E0
1.882221541E0,-3.943699036E0,2.848576355E0,-1.059347076E0,4.978892001E0
1.892188542E0,-4.867278442E0,3.442241821E0,-1.008887009E1,1.171856339E1
1.902156542E0,-4.988226929E0,3.824247437E0,-1.821921295E1,1.927296025E1
1.912124542E0,-3.626508636E0,3.814966736E0,-2.009271698E1,2.077072006E1
1.922092542E0,-1.773062897E0,3.028053131E0,-1.577793961E1,1.616342278E1
1.932060542E0,-3.022215271E-1,2.074236603E0,-7.783364410E0,8.060679679E0
1.942028542E0,5.766009521E-1,7.345225525E-1,-5.692662048E-1,1.093643475E0
1.951996542E0,1.623972931E0,8.915460205E-1,3.198099518E0,3.695941411E0
1.961963541E0,1.926344147E0,3.171155548E0,5.528453522E0,6.658139952E0
1.971931541E0,4.480183411E-1,5.619164886E0,3.550766144E0,6.662107374E0
1.981899541E0,-1.483864288E0,7.323969727E0,1.406175842E0,7.603927688E0
1.991867541E0,-2.822081451E0,8.947942657E0,7.854167175E-1,9.415237700E0
2.001835541E0,-3.348836060E0,1.088356750E1,-8.502319336E-2,1.138744807E1
2.011803541E0,-3.991749115E0,1.113519424E1,-2.626737671E0,1.211719285E1
2.021770542E0,-6.508465576E0,9.317973175E0,-5.029241638E0,1.242891869E1
2.031738542E0,-1.071531738E1,6.774761810E0,-6.313271484E0,1.416237343E1
2.041706542E0,-1.271306305E1,4.086202698E0,-2.626887360E0,1.360953937E1
2.051674542E0,-1.135703293E1,3.654350739E0,1.634600830E-1,1.193160490E1
2.061642542E0,-9.198521576E0,5.614674225E0,-1.439855804E0,1.087246755E1
2.071610542E0,-5.827980652E0,8.553812256E0,-1.639241180E0,1.047951212E1
2.081577541E0,-2.444566498E0,1.339669144E1,-1.248104553E0,1.367497758E1
2.091545541E0,1.748064880E0,2.559991470E1,-9.533524933E0,2.737333486E1
2.101513541E0,5.489833832E0,3.896487213E1,-7.304809570E0,4.002199119E1
2.111481541E0,1.708996124E0,4.376853287E1,1.256097931E1,4.556734948E1
2.121449541E0,-8.156837769E0,4.888564178E1,1.413435745E1,5.153755947E1
2.131417541E0,-2.520728119E1,4.768079727E1,-4.634512482E0,5.413265336E1
2.141385541E0,-3.701802063E1,3.854798904E1,-1.078656921E1,5.452184320E1
2.151352542E0,-2.483949600E1,3.081506973E1,6.646179199E0,4.013403521E1
2.161320542E0,-1.055080948E1,2.898707108E1,4.606371002E0,3.118955793E1
2.171288542E0,-5.905369720E0,2.716086868E1,-3.254831543E0,2.798535523E1
2.181256542E0,-5.229076080E0,2.570185272E1,-1.712438965E0,2.628423324E1
2.191224542E0,-5.627397766E0,2.539259583E1,2.641856232E0,2.614251198E1
2.201192542E0,-7.460336151E0,2.426514038E1,3.852089539E0,2.567668684E1
2.211160542E0,-8.182883606E0,2.204361008E1,3.952979736E0,2.384337179E1
2.221127833E0,-7.901917877E0,2.104353973E1,4.084705811E0,2.284634965E1
2.231095833E0,-6.841073914E0,2.026590683E1,2.264790344E0,2.150898759E1
2.241063833E0,-5.407355347E0,1.678923660E1,-8.337661743E-2,1.763873321E1
2.251031833E0,-4.189487915E0,1.216984268E1,-2.701881409E0,1.315131336E1
2.260999833E0,-3.740122375E0,7.972720642E0,-4.204456787E0,9.758598603E0
2.270967833E0,-3.316952362E0,3.078797607E0,-4.620441742E0,6.467584524E0
2.280934833E0,-2.056423645E0,-1.967508545E0,-3.080294495E0,4.193826684E0
2.290902833E0,-6.530918884E-1,-7.704029388E0,1.438059540E0,7.864261763E0
2.300870833E0,4.261188812E0,-1.391401566E1,4.277953949E0,1.516767786E1
2.310838833E0,8.815168762E0,-1.560130692E1,2.048190765E0,1.803615988E1
2.320806833E0,4.108805695E0,-1.588451797E1,1.141077118E0,1.644695268E1
2.330774833E0,-3.769611053E0,-1.404589142E1,3.011287994E0,1.485142716E1
2.340741833E0,-7.632627869E0,-9.084458771E0,6.523284760E0,1.354022317E1
2.350709833E0,-5.361550598E0,-4.299359436E0,3.726650391E0,7.817841103E0
2.360677833E0,-2.122286682E0,-1.609004059E0,7.484436035E-2,2.664319144E0
2.370645833E0,-3.073109436E-1,-3.712280273E-1,-1.032253418E0,1.139209104E0
2.380613833E0,5.574407959E-1,3.270698547E-1,-9.798623657E-1,1.173816505E0
2.390581833E0,9.592053223E-1,3.517684937E-1,-6.819818115E-1,1.228379060E0
2.400549833E0,1.394200745E0,5.113366699E-1,3.061134338E-1,1.516234263E0
2.410516833E0,1.740430756E0,8.559201050E-1,1.362167358E-1,1.944287386E0
2.420484833E0,1.221759338E0,1.297501831E0,-1.776056671E0,2.516065218E0
2.430452833E0,1.146166534E0,1.595831451E0,-1.759441223E0,2.637424722E0
2.440420833E0,1.123264160E0,1.895059204E0,-1.260977783E0,2.538313757E0
2.450388833E0,9.511221313E-1,2.085762634E0,-9.954299927E-1,2.499183856E0
2.460356833E0,9.936337280E-1,2.096989288E0,-4.885839844E-1,2.371368038E0
2.470323833E0,1.306632843E0,1.778751068E0,6.930587769E-2,2.208177541E0
2.480291833E0,1.827250214E0,1.574126587E0,7.039860535E-1,2.512431933E0
2.490259833E0,2.344275055E0,1.460512848E0,1.493743744E0,3.140062688E0
2.500227833E0,2.766097870E0,1.585652618E0,1.887874146E0,3.705355643E0
2.510195833E0,3.180286560E0,1.882036285E0,2.264640656E0,4.334152799E0
2.520163833E0,3.464246063E0,1.795965271E0,3.066822510E0,4.963052725E0
2.530131833E0,3.543581085E0,1.145717468E0,3.743565216E0,5.280522318E0
2.540098833E0,3.045566711E0,1.881587219E-1,3.091670837E0,4.343881774E0
2.550066833E0,2.279010773E0,-5.794450378E-1,2.033221893E0,3.108639240E0
2.560034833E0,1.631607056E0,-1.257534943E0,1.442699890E0,2.514939102E0
2.570002833E0,1.279539185E0,-1.489402771E0,8.919950867E-1,2.156663250E0
2.579970833E0,1.166823578E0,-1.429976349E0,5.463638306E-2,1.846427565E0
2.589938833E0,1.032852173E0,-1.384920044E0,-3.391946411E-1,1.760636289E0
2.599905833E0,9.190887451E-1,-1.340013428E0,-7.168592834E-1,1.776020084E0
2.609873833E0,7.426057434E-1,-1.121916962E0,-1.167272644E0,1.781203634E0
2.619841833E0,5.278024292E-1,-8.159532166E-1,-1.526375885E0,1.809469093E0
2.629809833E0,3.456312561E-1,-5.215155029E-1,-1.679806824E0,1.792537405E0
2.639777833E0,1.923500061E-1,-2.752775574E-1,-1.666933594E0,1.700424613E0
2.649745833E0,1.646575928E-2,1.362167358E-2,-1.622326355E0,1.622467095E0
2.659712833E0,-1.462458801E-1,3.556604004E-1,-1.501228180E0,1.549699399E0
2.669680833E0,-2.362088013E-1,7.150630188E-1,-1.179397430E0,1.399316983E0
2.679648833E0,-1.411564636E-1,9.559121704E-1,-8.502319336E-1,1.287084910E0
2.689616833E0,3.757186890E-2,1.078207855E0,-5.556445312E-1,1.213542199E0
2.699584833E0,1.950444031E-1,1.110241241E0,-2.805166626E-1,1.161622801E0
2.709552833E0,4.791535950E-1,1.490749969E0,-4.110452271E-1,1.618913777E0
2.719520833E0,2.051184540E0,7.421117706E0,-1.385653519E1,1.585193721E1
2.729487833E0,4.545447693E0,1.193782516E1,-1.533276535E1,1.995661438E1
2.739455833E0,4.803810425E0,1.117665802E1,3.910318451E0,1.277829681E1
2.749423833E0,6.412066040E0,1.901585632E1,6.808591461E0,2.119137325E1
2.759391833E0,4.058061218E0,3.596076920E1,6.324498138E0,3.673750207E1
2.769359833E0,-4.787045288E0,6.035853378E1,2.808010712E0,6.061314484E1
2.779327833E0,-1.991024643E1,7.400490601E1,2.373015289E0,7.667317150E1
2.789295833E0,-3.723746429E1,7.069289337E1,-2.174438232E1,8.280659444E1
2.799262833E0,-2.925860641E1,6.074428162E1,1.736913071E1,6.962485548E1
2.809230833E0,-1.059856018E1,4.600054138E1,-8.833131409E-1,4.721397598E1
2.819198833E0,8.893306274E0,3.594849472E1,-2.886971512E1,4.695578367E1
2.829166833E0,8.454418945E-1,2.730486923E1,1.122440872E1,2.953401441E1
2.839134833E0,-2.194736023E0,1.770218811E1,7.568261719E0,1.937686547E1
2.849102833E0,-1.485810242E0,9.418414307E0,1.053209839E0,9.592883356E0
2.859069833E0,-6.042933655E-1,2.950963440E0,2.161505127E-1,3.019946480E0
2.869037833E0,1.779798889E-1,-2.030078430E0,3.742218018E-3,2.037868808E0
2.879005833E0,6.608757019E-1,-4.667444000E0,1.759590912E0,5.031694582E0
2.888973833E0,2.155966644E0,-3.996389465E0,3.383264465E0,5.662667161E0
2.898941833E0,3.321143646E0,-2.478994904E0,3.568728790E0,5.469116568E0
2.908909833E0,2.882855072E0,-1.306183777E0,2.827470245E0,4.244002523E0
2.918877833E0,2.412982178E0,-7.644602966E-1,2.663860474E0,3.674647624E0
2.928844833E0,1.768871613E0,-4.195774841E-1,2.500699768E0,3.091674526E0
2.938812833E0,1.368454285E0,-2.609074402E-1,1.506317596E0,2.051763272E0
2.948780833E0,7.762857056E-1,-7.002438354E-1,1.049617310E0,1.481437620E0
2.958748833E0,4.290078735E-1,-1.063089294E0,9.699829102E-1,1.501690198E0
2.968716833E0,2.067201233E-1,-1.373394012E0,1.066831512E0,1.751306312E0
2.978684833E0,-4.475692749E-2,-1.660796356E0,1.502276001E0,2.239884127E0
2.988651833E0,-1.848655701E-1,-1.742227020E0,2.306553497E0,2.896501218E0
2.998619833E0,-2.014810181E-1,-1.544488220E0,2.709066467E0,3.124912733E0
3.008587833E0,-1.672023010E-1,-8.767268372E-1,1.693129120E0,1.913973034E0
3.018555833E0,1.404080200E-1,1.459465027E-1,2.716850281E-1,3.388621375E-1
3.028523833E0,1.942959595E-1,1.424437866E0,-1.683998108E-1,1.447457305E0
3.038491833E0,3.094065857E-1,3.315006409E0,-1.059347076E0,3.493882676E0
3.048458833E0,4.108955383E-1,6.705904999E0,-4.290827179E0,7.971774889E0
3.058426833E0,4.727169800E-1,1.153546188E1,-6.060297546E0,1.303907775E1
3.068394833E0,4.815486145E-1,1.801144501E1,-4.353247375E0,1.853631039E1
3.078362833E0,-8.692424011E-1,2.624058243E1,-1.586850128E0,2.630288657E1
3.088330833E0,-4.964127045E0,3.134167465E1,1.476529541E0,3.176670060E1
3.098298833E0,-8.823551331E0,3.253873535E1,3.306174774E0,3.387558336E1
3.108266833E0,-9.659263458E0,2.751787628E1,4.879103851E0,2.956924991E1
3.118233833E0,-6.306086426E0,1.982327728E1,6.509363708E0,2.179680858E1
3.128201833E0,4.161346436E-2,1.699895050E1,-1.716929626E0,1.708548791E1
3.138169833E0,2.888842621E0,1.337917786E1,-5.782175903E0,1.485871360E1
3.148137833E0,2.514620819E0,9.577533417E0,-3.299887848E0,1.043751522E1
3.158105833E0,1.406475220E0,6.921606445E0,-9.821076965E-1,7.131012821E0
3.168073833E0,6.643185425E-1,4.750371552E0,-4.525090027E-1,4.817895121E0
3.178041833E0,-1.017883301E-2,3.332370300E0,-6.065386963E-1,3.387135164E0
3.188008833E0,-7.533833313E-1,2.801125031E0,-7.655081177E-1,2.999981760E0
3.197976833E0,-1.570384369E0,3.358715515E0,-5.553451538E-2,3.708120961E0
3.207944833E0,-2.085612946E0,4.835993500E0,1.053359528E0,5.370864063E0
3.217912833E0,-2.334994354E0,6.234385529E0,9.484277344E-1,6.724527992E0
3.227880292E0,-2.833906860E0,6.696025543E0,4.367916870E-1,7.284131599E0
3.237848292E0,-3.712429962E0,6.446344757E0,4.667294312E-1,7.453545016E0
3.247815291E0,-4.375251617E0,6.208489380E0,8.652008057E-2,7.595765453E0
3.257783291E0,-5.168452148E0,6.220165100E0,-1.416654053E0,8.210375155E0
3.267751291E0,-5.467979279E0,6.870861969E0,-4.472249908E0,9.854367602E0
3.277719291E0,-4.377496948E0,8.151448975E0,-6.589447174E0,1.135911150E1
3.287687291E0,-3.744762726E0,8.711733856E0,-8.271798706E0,1.258333058E1
3.297655291E0,-5.319188690E0,7.844587097E0,-7.432643738E0,1.204472947E1
3.307623291E0,-7.198380890E0,6.148613892E0,-1.632505188E0,9.606623414E0
3.317590292E0,-6.980583801E0,5.203479309E0,1.176104279E0,8.785668353E0
3.327558292E0,-5.034031677E0,5.204377441E0,3.213667145E0,7.921784900E0
3.337526292E0,-3.006797333E0,5.021457825E0,4.343218231E0,7.288306627E0
3.347494292E0,-2.046244812E0,3.823049927E0,3.541186066E0,5.598466515E0
3.357462292E0,-1.938319244E0,2.103425903E0,3.006198578E0,4.149543579E0
3.367430292E0,-2.667602692E0,6.800358582E-1,2.852767639E0,3.964446505E0
3.377397291E0,-3.360511780E0,-2.896476746E-1,2.823578339E0,4.398810047E0
3.387365291E0,-3.529959412E0,-9.282197571E-1,2.965034180E0,4.702513482E0
3.397333291E0,-4.170178070E0,-1.391356659E0,2.450554047E0,5.033038210E0
3.407301291E0,-5.661077728E0,-1.643881531E0,1.293460236E0,6.035162542E0
3.417269291E0,-8.035440216E0,-1.315464478E0,2.183958435E-1,8.145332590E0
3.427237291E0,-1.026176056E1,1.420545959E0,-2.717898102E0,1.071021245E1
3.437205291E0,-1.159653488E1,8.557853851E0,-1.805545349E1,2.310229176E1
3.447172292E0,-1.064720901E1,1.330238754E1,-1.682725754E1,2.394729986E1
3.457140292E0,-9.707014160E0,1.255843460E1,2.632575531E0,1.608946418E1
3.467108292E0,-1.004605911E1,1.484118759E1,4.930297394E0,1.858741470E1
3.477076292E0,-1.030142807E1,1.835168747E1,3.936513977E0,2.141027780E1
3.487044292E0,-1.054018158E1,2.412757645E1,4.115242310E0,2.664902610E1
3.497012292E0,-8.715326385E0,3.376378784E1,2.908451843E0,3.499156149E1
3.506979291E0,-3.587140503E0,4.658133362E1,4.889282684E0,4.697438987E1
3.516947291E0,-1.235231323E0,5.451288986E1,8.033643951E0,5.511551862E1
3.526915291E0,-2.518961792E0,5.382028015E1,8.353977814E0,5.452299212E1
3.536883291E0,-7.096143494E0,4.617432999E1,-1.568737793E0,4.674275281E1
3.546851291E0,-1.286649399E1,3.449531662E1,-1.829750015E1,4.111291826E1
3.556819291E0,-1.060349991E1,2.806693451E1,-5.693410492E0,3.053853215E1
3.566787291E0,-7.220235443E0,2.464490067E1,2.428849182E0,2.579539178E1
3.576754292E0,-5.211861877E0,2.135309601E1,1.434916077E0,2.202673824E1
3.586722292E0,-3.864214325E0,1.922152863E1,2.947670288E0,1.982644888E1
3.596690292E0,-4.572840729E0,1.729563354E1,4.744833069E0,1.850846436E1
3.606658292E0,-5.915398865E0,1.547032928E1,3.398981781E0,1.690787122E1
3.616626292E0,-6.123316498E0,1.351479584E1,5.951623535E-1,1.484920637E1
3.626594292E0,-6.098318481E0,1.034828064E1,-1.120869141E0,1.206369546E1
3.636561291E0,-5.871989136E0,5.925577698E0,-2.478845215E0,8.702723773E0
3.646529291E0,-5.474266205E0,9.874964905E-1,-1.553319855E0,5.775425731E0
3.656497291E0,-6.626270599E0,-3.314407654E0,1.582209778E-1,7.410654089E0
3.666465291E0,-6.962621155E0,-4.839436340E0,3.421884155E0,9.143715252E0
3.676433291E0,-5.909111938E0,-4.477339325E0,5.829028473E0,9.430893079E0
3.686401291E0,-5.464237061E0,-4.724325714E0,6.963818665E0,1.003353928E1
3.696369291E0,-5.743556213E0,-5.556145935E0,5.984704742E0,9.983781172E0
3.706336292E0,-5.994284821E0,-6.110293579E0,2.440973969E0,8.900870297E0
3.716304292E0,-5.079387360E0,-6.228248291E0,-1.871258698E0,8.251839906E0
3.726272292E0,-2.556383972E0,-5.294040985E0,-3.688479767E0,6.940234287E0
3.736240292E0,-6.406677246E-2,-3.775299225E0,-2.773881683E0,4.685233013E0
3.746208292E0,1.097218323E0,-2.510429535E0,-1.232087860E0,3.004028128E0
3.756176291E0,1.366658020E0,-1.863325195E0,-4.549040222E-1,2.355137490E0
3.766144291E0,1.336121521E0,-1.686093750E0,-5.334906006E-1,2.216471311E0
3.776111292E0,9.851014709E-1,-1.620679779E0,-6.342311096E-1,1.999819231E0
3.786079292E0,6.343807983E-1,-1.542392578E0,-7.963439941E-1,1.848128139E0
3.796047292E0,3.917353821E-1,-1.377435608E0,-1.178349609E0,1.854533166E0
3.806015292E0,2.121089172E-1,-1.210083618E0,-1.532662811E0,1.964267764E0
3.815983292E0,4.905299377E-1,-9.717791748E-1,-1.888772278E0,2.180008051E0
3.825951292E0,4.960684204E-1,-9.132508850E-1,-2.284698944E0,2.509972176E0
3.835919292E0,2.836601257E-1,-1.053509216E0,-2.231110382E0,2.483585769E0
3.845886291E0,6.776408386E-1,-1.024170227E0,-2.033820648E0,2.375825791E0
3.855854291E0,1.190624084E0,-9.744735718E-1,-1.192270660E0,1.946456724E0
3.865822291E0,2.765648804E0,-5.191204834E-1,3.950285339E-1,2.841539534E0
3.875790291E0,4.743485870E0,2.128573608E-1,2.642005920E0,5.433798095E0
3.885758291E0,7.395221558E0,1.810934143E0,4.840184784E0,9.021982770E0
3.895726291E0,1.004231689E1,3.465443573E0,6.707850952E0,1.256394413E1
3.905693292E0,1.251098328E1,4.340673523E0,7.244335327E0,1.509458656E1
3.915661292E0,1.341869568E1,4.332290955E0,7.234306183E0,1.584819626E1
3.925629292E0,1.145118713E1,2.997366943E0,5.447471924E0,1.303030490E1
3.935597292E0,7.834857330E0,8.912466431E-1,2.930456085E0,8.412305441E0
3.945565292E0,4.446054382E0,-8.885522461E-1,1.476679230E0,4.768386122E0
3.955533292E0,2.135459290E0,-1.819316711E0,1.373394012E0,3.123509370E0
3.965501292E0,7.406597900E-1,-2.113005981E0,1.413809967E0,2.648061522E0
3.975468291E0,-7.843688965E-2,-2.171833649E0,9.851014709E-1,2.386092758E0
3.985436291E0,-5.959107971E-1,-2.046843567E0,6.994953918E-1,2.243651503E0
3.995404291E0,-7.403604126E-1,-1.811532898E0,2.143542480E-1,1.968688072E0
4.005372291E0,-4.578977966E-1,-1.385069733E0,-1.175056458E-1,1.463521825E0
4.015340291E0,-6.047424316E-2,-9.645941162E-1,-3.930825806E-1,1.043366119E0
4.025308291E0,1.709445190E-1,-6.704557800E-1,-5.764512634E-1,9.005715078E-1
4.035276291E0,1.007405090E-1,-5.177732849E-1,-8.300239563E-1,9.834518762E-1
4.045243292E0,-3.893403625E-1,-4.324507141E-1,-1.206042023E0,1.339080617E0
4.055211292E0,-1.530417480E0,2.172731781E0,-1.211775101E1,1.240575796E1
4.065179292E0,-1.062789917E-2,1.091530151E1,-4.018782898E1,4.164379327E1
4.075147292E0,1.182091827E0,7.134912872E0,-1.517379593E1,1.680917623E1
4.085115292E0,3.557801514E0,8.559949493E0,-5.508544922E-2,9.270044301E0
4.095083292E0,7.806117096E0,1.930430649E1,6.234235840E0,2.173608543E1
4.105051292E0,8.052953796E0,3.744613037E1,7.589667206E0,3.904696906E1
4.115018291E0,6.465205536E0,6.226796310E1,6.163283386E0,6.290535886E1
4.124986291E0,1.537303162E-1,7.563321991E1,1.091275681E1,7.641659406E1
4.134954291E0,-6.406377869E0,7.014682892E1,1.786564819E1,7.266911772E1
4.144922291E0,-8.433612213E0,5.846437271E1,1.153426437E1,6.018511399E1
4.154890291E0,-7.672295380E0,3.969774811E1,-1.203123093E1,4.218442650E1
4.164858291E0,1.014081207E1,2.519425827E1,-3.538327011E1,4.460451236E1
4.174825292E0,1.317485275E1,1.652832916E1,-1.630110168E-1,2.113738353E1
4.184793292E0,3.470532990E0,1.367316650E1,2.624746811E1,2.979814866E1
4.194761292E0,1.537153473E0,1.028122009E1,1.662981812E1,1.961165923E1
4.204729292E0,2.362088013E0,6.440357208E0,4.746629333E0,8.341951257E0
4.214697292E0,2.615511017E0,2.877765656E0,-2.807711334E0,4.796423249E0
4.224665083E0,1.531465302E0,-9.003776550E-1,-6.333329773E0,6.577775605E0
4.234633083E0,9.307644653E-1,-2.599344635E0,-6.109096069E0,6.704026388E0
4.244600083E0,6.692582703E-1,-1.924996948E0,-3.196902008E0,3.791266587E0
4.254568083E0,5.257067871E-1,-1.389859772E0,-1.431772614E0,2.063504453E0
4.264536083E0,3.481759644E-1,-1.039737854E0,-5.417234802E-1,1.223006801E0
4.274504083E0,2.603086853E-1,-7.870632935E-1,-1.372645569E-1,8.402801903E-1
4.284472083E0,8.217910767E-2,-7.141648865E-1,4.505630493E-2,7.202881100E-1
4.294440083E0,-1.315763855E-1,-7.982899475E-1,9.520202637E-2,8.146426280E-1
4.304408083E0,-2.222877502E-1,-1.086740112E0,-1.811233521E-1,1.123931308E0
4.314375083E0,-2.856060791E-1,-1.285227356E0,-3.370989990E-1,1.359049640E0
4.324343083E0,-4.734654236E-1,-1.424737244E0,1.704954529E-1,1.510997823E0
4.334311083E0,-8.931925964E-1,-1.479523315E0,5.786965942E-1,1.822545474E0
4.344279083E0,-1.602417755E0,-1.222657471E0,1.265618134E0,2.380004877E0
4.354247083E0,-2.191891937E0,-2.942880249E-1,1.966460724E0,2.959385660E0
4.364215083E0,-2.292183380E0,1.211430817E0,2.672243042E0,3.723244841E0
4.374183083E0,-2.341580658E0,2.965782623E0,1.951791229E0,4.253040742E0
4.384150083E0,-2.617307281E0,5.446124725E0,2.859054565E-1,6.049158112E0
4.394118083E0,-3.159629517E0,9.789342957E0,-8.015830994E-1,1.031780159E1
4.404086083E0,-3.086282043E0,1.515358795E1,1.537452850E0,1.554091780E1
4.414054083E0,-5.070855103E0,1.894056290E1,4.778962097E0,2.018159986E1
4.424022083E0,-5.561534729E0,2.408416672E1,5.329966278E0,2.528608897E1
4.433990083E0,-3.008144531E0,2.830703522E1,4.816084900E0,2.887095167E1
4.443958083E0,-1.541045380E0,2.828308502E1,3.986510010E0,2.860419517E1
4.453925083E0,-9.681866455E-1,2.463008148E1,3.748504944E0,2.493250065E1
4.463893083E0,-4.186793518E-1,1.854493561E1,1.775308228E0,1.863442106E1
4.473861083E0,5.686674500E-1,1.355910370E1,1.050964508E0,1.361165685E1
4.483829083E0,2.504142609E0,1.084345093E1,-1.955683136E0,1.129937409E1
4.493797083E0,4.055217133E0,8.512647858E0,-7.183262329E0,1.185365839E1
4.503765083E0,2.929108887E0,6.578669586E0,-8.289611664E0,1.098072101E1
4.513733083E0,7.948471069E-2,5.463638306E0,-3.854783936E0,6.687078626E0
4.523700083E0,-9.494755554E-1,5.211412811E0,-4.228706360E-1,5.314051834E0
4.533668083E0,-7.795788574E-1,5.138963470E0,6.420149231E-1,5.237258052E0
4.543636083E0,-1.237027588E0,5.540428619E0,6.557862854E-1,5.714599040E0
4.553604083E0,-2.936144257E0,6.366111603E0,3.113525391E-2,7.010655421E0
4.563572083E0,-4.721481628E0,7.255561981E0,-2.748284912E-1,8.660894823E0
4.573540083E0,-5.992189178E0,8.011040955E0,-2.490820312E-1,1.000725488E1
4.583508083E0,-6.951693878E0,8.167166290E0,-3.323089600E-2,1.072519265E1
4.593475083E0,-6.979985046E0,7.867489471E0,8.499325562E-1,1.055177555E1
4.603443083E0,-6.419251099E0,7.548802185E0,1.580563202E0,1.003440976E1
4.613411083E0,-5.969885559E0,6.902296600E0,1.617236938E0,9.268046572E0
4.623379083E0,-5.380112000E0,6.259383545E0,1.274300079E0,8.351606323E0
4.633347083E0,-4.587659912E0,5.396577759E0,1.450932770E0,7.230136989E0
4.643315083E0,-4.003125458E0,4.573738861E0,2.341580658E0,6.513608875E0
4.653283083E0,-4.041745148E0,3.753145294E0,2.149530029E0,5.919652252E0
4.663250083E0,-4.317322083E0,3.040626984E0,-8.913963318E-1,5.355302964E0
4.673218083E0,-4.310436401E0,3.983366547E0,-1.748813324E0,6.124166805E0
4.683186083E0,-3.890709229E0,5.620362396E0,2.477348328E-1,6.840136279E0
4.693154083E0,-3.730542297E0,7.083869019E0,-8.577163696E-1,8.051945322E0
4.703122083E0,-3.906725922E0,8.424780579E0,-2.845732269E0,9.712755910E0
4.713090083E0,-4.279001770E0,9.453441467E0,-2.768343201E0,1.073969906E1
4.723058083E0,-4.233496399E0,1.014350647E1,-9.768685913E-1,1.103483065E1
4.733025083E0,-4.223766632E0,1.038495438E1,2.233355713E-1,1.121326717E1
4.742993083E0,-4.854255524E0,1.005788452E1,9.586065674E-1,1.120909293E1
4.752961083E0,-5.170847168E0,8.946445770E0,1.732497253E0,1.047750443E1
4.762929083E0,-4.276157684E0,7.326514435E0,1.490450592E0,8.613058764E0
4.772897083E0,-2.684517517E0,5.802084503E0,3.309617615E-1,6.401590003E0
4.782865083E0,-1.337019653E0,4.718487854E0,-4.085005188E-1,4.921241902E0
4.792833083E0,-8.993298340E-1,4.522844696E0,-4.860392761E-1,4.636933520E0
4.802800083E0,-1.231189728E0,5.680387573E0,-4.254153442E-1,5.827830586E0
4.812768083E0,-2.247875519E0,8.168064423E0,-3.085084534E-1,8.477346178E0
4.822736083E0,-3.692820740E0,1.159533737E1,2.311193848E-1,1.217136763E1
4.832704083E0,-5.095104675E0,1.630199982E1,1.728904724E0,1.716695667E1
4.842672083E0,-6.341712341E0,2.286150925E1,4.341272278E0,2.411871816E1
4.852640083E0,-7.085365906E0,3.079261642E1,7.727680206E0,3.252852099E1
4.862608083E0,-7.577542419E0,3.831103180E1,7.817194061E0,3.982791521E1
4.872575083E0,-6.902146912E0,4.299374405E1,7.900870056E0,4.425523028E1
4.882543083E0,-5.787415009E0,4.265694443E1,8.770262146E0,4.393206777E1
4.892511083E0,-5.423222351E0,4.103761185E1,7.548203430E0,4.207698066E1
4.902479083E0,-6.971752167E0,3.700050705E1,-6.267915802E0,3.816974743E1
4.912447083E0,-7.845335541E0,3.010689240E1,-1.960083984E1,3.677182593E1
4.922415083E0,-4.779111786E0,2.510324753E1,-4.651726685E0,2.597405450E1
4.932383083E0,-3.701951752E0,2.149455185E1,5.081183624E0,2.239505823E1
4.942350083E0,-3.980522461E0,1.854328903E1,5.279970245E0,1.968695540E1
4.952318083E0,-5.032834167E0,1.582449280E1,4.678221588E0,1.725194914E1
4.962286083E0,-6.061644745E0,1.293295578E1,2.447560272E0,1.449121919E1
4.972254083E0,-6.919510803E0,1.005728577E1,-8.268804932E-1,1.223570015E1
4.982222083E0,-7.366032257E0,6.565646667E0,-4.030668182E0,1.065891333E1
4.992190083E0,-7.348368988E0,3.082988892E0,-3.552412720E0,8.724848619E0
5.002158083E0,-9.047785034E0,1.040635986E0,-4.165388031E0,1.001477882E1
5.012125083E0,-1.012329849E1,2.724334717E0,-4.245172119E-1,1.049206304E1
5.022093083E0,-1.065454376E1,2.692900085E0,4.802463226E0,1.199310913E1
5.032061083E0,-9.512119446E0,1.347198486E-2,6.308930511E0,1.141416673E1
5.042029083E0,-6.792125702E0,-1.673819275E0,3.892056427E0,8.005169939E0
5.051997083E0,-3.710184631E0,-2.125879211E0,2.469564514E0,4.937973401E0
5.061965083E0,-1.144819336E0,-2.257156219E0,1.076561279E0,2.750336288E0
5.071933083E0,1.278341675E-1,-3.112776947E0,-1.445244598E0,3.434305439E0
5.081900083E0,4.354444885E-1,-3.509152679E0,-2.531385956E0,4.348756062E0
5.091868083E0,3.692820740E-1,-3.264860687E0,-1.769470367E0,3.731850739E0
5.101836083E0,4.345463562E-1,-3.006048889E0,-6.102809143E-1,3.097999880E0
5.111804083E0,4.143383789E-1,-2.899620209E0,-5.728587341E-1,2.984567100E0
5.121772083E0,5.081932068E-1,-2.553539886E0,-9.172924805E-1,2.760480353E0
5.131740083E0,6.770420837E-1,-2.393372955E0,-1.168021088E0,2.747888889E0
5.141708083E0,8.366102600E-1,-2.190844116E0,-1.377435608E0,2.719750636E0
5.151675083E0,1.023571472E0,-2.007924500E0,-1.440304871E0,2.674684556E0
5.161643083E0,1.248703308E0,-2.007924500E0,-1.424437866E0,2.760442715E0
5.171611083E0,1.754351807E0,-1.997745667E0,-8.828640747E-1,2.801461580E0
5.181579083E0,2.587519226E0,-1.950893097E0,-4.444258118E-1,3.270894973E0
5.191547083E0,3.173101501E0,-1.869761810E0,1.505868530E-1,3.686089902E0
5.201515083E0,3.381617889E0,-1.876198425E0,3.620970154E-1,3.884143964E0
5.211483083E0,4.675826569E0,-9.801617432E-1,1.299597473E0,4.951062990E0
5.221450083E0,7.482190704E0,5.715115356E-1,2.402354279E0,7.879156633E0
5.231418666E0,8.509654083E0,1.504521332E0,2.784359894E0,9.079122043E0
5.241386666E0,9.490713959E0,1.859433289E0,5.059478760E0,1.091464470E1
5.251354666E0,9.462273102E0,1.576521606E0,5.952821045E0,1.128964619E1
5.261322666E0,6.782994690E0,5.469625854E-1,2.946323090E0,7.415457153E0
5.271290666E0,3.502865753E0,-4.719685364E-1,8.967851257E-1,3.646511531E0
5.281258666E0,1.387764130E0,-1.068029022E0,4.445755005E-1,1.806715984E0
5.291225667E0,4.111949158E-1,-1.360520782E0,5.411247253E-1,1.520826758E0
5.301193667E0,1.395098877E-1,-1.359472961E0,4.905299377E-1,1.451981185E0
5.311161667E0,2.546205139E-1,-1.026864624E0,3.674858093E-1,1.119968027E0
5.321129667E0,4.739144897E-1,-4.635859680E-1,1.981878662E-1,6.919431506E-1
5.331097667E0,6.487509155E-1,1.582209778E-1,5.927673340E-2,6.703919446E-1
5.341065667E0,5.846841431E-1,7.140151978E-1,-1.448986816E-1,9.341674784E-1
5.351033667E0,3.936813354E-1,9.526190186E-1,-3.990701294E-1,1.105316677E0
5.361000666E0,2.248324585E-1,9.728269958E-1,-5.887257385E-1,1.159111726E0
5.370968666E0,4.550537109E-2,9.641450500E-1,-7.300318909E-1,1.210203693E0
5.380936666E0,9.355545044E-2,1.152603149E0,-5.153782654E-1,1.266041626E0
5.390904666E0,3.724255371E-1,1.789079590E0,-2.192939758E-1,1.840542422E0
5.400872666E0,1.169517975E0,3.567680969E0,1.884580994E-1,3.759206864E0
5.410840666E0,3.888014832E0,8.137378235E0,1.131946106E0,9.089273120E0
5.420808666E0,7.976013794E0,1.631292709E1,3.017275543E0,1.840739900E1
5.430775667E0,8.645421753E0,2.946757187E1,1.331481171E0,3.073847672E1
5.440743667E0,-8.581654358E-1,5.446109756E1,-4.384996353E1,6.992543813E1
5.450711667E0,-3.367696838E0,6.975479416E1,-1.563603470E1,7.156506320E1
5.460679667E0,-1.075932587E1,7.808452240E1,4.891228638E1,9.276512001E1
5.470647667E0,-2.763762726E1,7.287999527E1,3.922143860E1,8.725625133E1
5.480615667E0,-3.250580383E1,4.796505615E1,-4.306260086E1,7.219183809E1
5.490583667E0,-9.978399811E0,3.569806549E1,-5.532495117E0,3.747704424E1
5.500550666E0,-5.915548553E0,2.545486633E1,1.284254379E1,2.911829091E1
5.510518666E0,-4.274511108E0,1.447579742E1,7.231462097E0,1.673661257E1
5.520486666E0,-2.539918213E0,6.348448334E0,3.758833466E0,7.802743735E0
5.530454666E0,-1.091380463E0,-1.775308228E-1,2.004930725E0,2.289623489E0
5.540422666E0,1.496887207E-4,-4.331542511E0,1.699565735E0,4.653040322E0
5.550390666E0,1.789828033E0,-5.408403168E0,1.224603424E0,5.827002897E0
5.560358666E0,2.709814911E0,-4.479884033E0,1.426383820E0,5.426511642E0
5.570325667E0,2.376757507E0,-3.509751434E0,8.550219727E-1,4.324163960E0
5.580293667E0,2.164349213E0,-3.107388153E0,4.728666687E-1,3.816264081E0
5.590261667E0,2.096839600E0,-2.972817993E0,7.182064819E-1,3.708126707E0
5.600229667E0,1.805994415E0,-2.708617401E0,6.780899048E-1,3.325361630E0
5.610197667E0,1.818418579E0,-2.615960083E0,1.011596375E0,3.342636760E0
5.620165667E0,1.544188843E0,-2.733465729E0,1.634451141E0,3.539461062E0
5.630133667E0,1.415007477E0,-2.807262268E0,2.229463806E0,3.854020818E0
5.640100666E0,1.405876465E0,-2.737058258E0,2.275118866E0,3.826766572E0
5.650068666E0,1.238075409E0,-2.401156769E0,2.231709137E0,3.504127597E0
5.660036666E0,8.873547363E-1,-1.670825500E0,2.517165527E0,3.148837654E0
5.670004666E0,7.460485840E-1,-7.104226685E-1,2.521207123E0,2.723559108E0
5.679972666E0,8.228388977E-1,3.363505554E-1,2.234852600E0,2.405153154E0
5.689940666E0,7.214996338E-1,1.188079376E0,2.249372406E0,2.644195633E0
5.699908666E0,6.117778015E-1,1.988315277E0,2.628683624E0,3.352260031E0
5.709875667E0,7.979905701E-1,3.506458282E0,3.966601410E0,5.354060644E0
5.719843667E0,1.748963013E0,6.214776306E0,6.284531250E0,9.009863994E0
5.729811667E0,2.101180573E0,1.052730835E1,7.116501160E0,1.287958732E1
5.739779667E0,1.772164764E0,1.438463699E1,6.063141632E0,1.571050718E1
5.749747667E0,3.043171692E-1,1.629331787E1,4.550686798E0,1.691962076E1
5.759715667E0,-7.065307617E-1,1.742975464E1,3.566633148E0,1.780495449E1
5.769683667E0,3.150947571E-1,2.176713501E1,2.412084045E0,2.190263913E1
5.779650666E0,1.040935364E0,2.404554703E1,3.001408539E0,2.425449096E1
5.789618666E0,1.554966431E0,2.464265533E1,3.415297852E0,2.492674551E1
5.799586666E0,1.756148071E0,2.401246582E1,3.355122986E0,2.430924559E1
5.809554666E0,1.841470642E0,2.198148926E1,2.904559937E0,2.224889554E1
5.819522666E0,1.838476868E0,1.842563370E1,1.262624359E0,1.856012378E1
5.829490666E0,2.010768585E0,1.320613770E1,-1.273851013E0,1.341894033E1
5.839458666E0,3.219205627E0,1.032762360E1,-2.017953644E0,1.100432783E1
5.849425666E0,4.636009369E0,8.996441803E0,-5.993835754E0,1.176242386E1
5.859393666E0,4.373455353E0,7.464677124E0,-6.154152374E0,1.061706681E1
5.869361666E0,2.632874908E0,6.527026978E0,-3.075953522E0,7.680859426E0
5.879329666E0,1.373693390E0,6.044580231E0,-2.314187622E-1,6.203026547E0
5.889297666E0,7.231462097E-1,5.335804138E0,1.379680939E0,5.558530897E0
5.899265666E0,5.020559692E-1,4.667893066E0,2.096989288E0,5.141852774E0
5.909233666E0,4.610412598E-1,4.145030365E0,2.000440063E0,4.625537398E0
5.919200667E0,5.520520020E-1,3.891307983E0,1.637744293E0,4.257845183E0
5.929168667E0,7.262896729E-1,3.965703278E0,1.470541992E0,4.291479107E0
5.939136667E0,8.205935669E-1,4.225263519E0,1.566043396E0,4.580252998E0
5.949104667E0,1.052012329E0,4.814288635E0,1.918410645E0,5.288138085E0
5.959072667E0,1.547931061E0,5.543572083E0,1.685944061E0,5.997473583E0
5.969040667E0,1.542691956E0,6.999145203E0,9.189390564E-1,7.225813520E0
5.979008667E0,4.670288086E-2,9.425749054E0,-1.481918335E0,9.541645997E0
5.988975666E0,-2.570454712E0,9.868378601E0,3.279679871E-1,1.020292589E1
5.998943666E0,-6.292015686E0,8.864266663E0,2.956052856E0,1.126512021E1
6.008911666E0,-1.155941208E1,7.027885437E0,2.144141235E0,1.369702606E1
6.018879666E0,-1.634181702E1,5.460345154E0,-5.265899506E0,1.801666035E1
6.028847666E0,-1.525896881E1,3.441792755E0,-9.492360535E0,1.829718489E1
6.038815666E0,-9.324858856E0,2.701432343E0,-1.731000366E0,9.861394002E0
6.048783666E0,-6.830745392E0,1.996847534E0,4.143234100E0,8.234857102E0
6.058750667E0,-5.135820007E0,1.818119202E0,5.121749268E0,7.477601229E0
6.068718667E0,-4.019740906E0,2.831212463E0,4.248764648E0,6.498159893E0
6.078686667E0,-3.697610779E0,4.175566864E0,2.863096161E0,6.269370282E0
6.088654667E0,-4.631818085E0,4.571343842E0,1.367406464E0,6.649866444E0
6.098622667E0,-7.317682800E0,3.862118683E0,-6.011499023E-1,8.296133044E0
6.108590667E0,-9.174272003E0,2.716850281E0,-6.532415771E-1,9.590373652E0
6.118558667E0,-8.916358337E0,1.850751343E0,2.207609253E0,9.370179569E0
6.128525666E0,-8.493487701E0,2.291584625E0,2.507136383E0,9.147481963E0
6.138493666E0,-8.615484009E0,5.234764252E0,6.650669861E-1,1.010305081E1
6.148461666E0,-9.292825470E0,1.014560211E1,-1.905836792E0,1.388963863E1
6.158429666E0,-1.087757996E1,1.733125946E1,-5.369783478E0,2.115487827E1
6.168397666E0,-1.081111816E1,2.788012299E1,-8.532406769E0,3.109635829E1
6.178365666E0,-8.735085297E0,3.673331268E1,6.453080750E-1,3.776313544E1
6.188333666E0,-7.501201172E0,4.204726227E1,9.078770599E0,4.366536796E1
6.198300667E0,-4.189637604E0,4.415188568E1,4.047732697E0,4.453455077E1
6.208268667E0,1.222507782E0,4.307622253E1,-1.059122543E1,4.437600173E1
6.218236667E0,-7.494914246E-1,3.609429153E1,-1.735940094E0,3.614378379E1
6.228204167E0,-5.027295685E0,2.924273941E1,6.221212921E0,3.031690948E1
6.238172167E0,-5.613776093E0,2.647065399E1,4.537214813E0,2.743713402E1
6.248140167E0,-5.562732239E0,2.473411514E1,2.900967407E0,2.551736769E1
6.258108167E0,-5.175786896E0,2.355576553E1,3.674858093E0,2.439605382E1
6.268075166E0,-5.145100708E0,2.190724365E1,3.965254211E0,2.285000277E1
6.278043166E0,-5.808820496E0,1.979453705E1,2.271526337E0,2.075393756E1
6.288011166E0,-6.154302063E0,1.751028717E1,1.208736420E0,1.859964071E1
6.297979166E0,-5.332810364E0,1.451711151E1,7.840695190E-1,1.548548217E1
6.307947166E0,-4.096980286E0,1.082653610E1,-8.473878479E-1,1.160677378E1
6.317915166E0,-3.236120453E0,6.267766113E0,-5.524112549E0,8.959530517E0
6.327883167E0,-2.427052917E0,1.500180359E0,-2.940934296E0,4.097587278E0
6.337850166E0,-4.484674072E-1,7.731422424E-1,5.509892120E0,5.581915721E0
6.347818166E0,1.302142181E0,1.475182343E0,4.808301086E0,5.195334113E0
6.357786166E0,6.083349609E-1,1.166075134E0,2.195933533E0,2.559673167E0
6.367754166E0,-1.947599945E0,-8.090675354E-1,1.618733826E0,2.658577631E0
6.377722166E0,-5.115162964E0,-3.542383575E0,1.950444031E-1,6.225063523E0
6.387690166E0,-7.847281494E0,-6.249653778E0,-3.064277802E0,1.048941360E1
6.397658166E0,-6.869664459E0,-6.585255890E0,-1.057101746E0,9.574724488E0
6.407625167E0,-4.488715668E0,-5.560037842E0,1.087189178E0,7.228040499E0
6.417593167E0,-3.029999084E0,-4.688849487E0,1.084195404E0,5.686974911E0
6.427561167E0,-1.694626007E0,-3.822451172E0,1.682501221E-1,4.184638380E0
6.437529167E0,-6.752458191E-1,-2.980302429E0,-7.753875732E-1,3.152679079E0
6.447497167E0,2.574645996E-2,-2.334545288E0,-9.279203796E-1,2.512329758E0
6.457465167E0,2.618055725E-1,-1.887574768E0,-6.987469482E-1,2.029711300E0
6.467433167E0,2.544708252E-1,-1.612596588E0,-7.955955505E-1,1.816093455E0
6.477400166E0,3.676354980E-1,-1.455423431E0,-1.173858948E0,1.905612252E0
6.487368166E0,3.592529297E-1,-1.403331757E0,-1.642384644E0,2.189938356E0
6.497336166E0,4.055067444E-1,-1.269959106E0,-2.058519287E0,2.452495363E0
6.507304166E0,4.023632813E-1,-1.177451477E0,-2.280956726E0,2.598278618E0
6.517272166E0,5.712121582E-1,-1.082099762E0,-2.027833099E0,2.368402479E0
6.527240166E0,9.346563721E-1,-1.032403107E0,-1.431473236E0,1.997136534E0
6.537208166E0,1.636397095E0,-8.527766418E-1,-6.450086975E-1,1.954753098E0
6.547175167E0,2.203867035E0,-7.348219299E-1,1.420545959E-1,2.327482048E0
6.557143167E0,3.402574310E0,-1.604663086E-1,1.364412689E0,3.669452733E0
6.567111167E0,5.021457825E0,6.033952332E-1,2.622995453E0,5.697300206E0
6.577079167E0,5.822741547E0,1.002315674E0,4.538711700E0,7.450426815E0
6.587047167E0,7.028035126E0,2.013762360E0,7.566615143E0,1.052151041E1
6.597015167E0,7.476053467E0,2.792443085E0,1.018047958E1,1.293565918E1
6.606982166E0,6.129453735E0,2.084265747E0,8.119415588E0,1.038456914E1
6.616950166E0,3.764072571E0,1.161584473E0,3.290008392E0,5.132414249E0
6.626918166E0,1.896107025E0,3.597019958E-1,1.016685791E0,2.181343021E0
6.636886166E0,7.958949280E-1,-6.436614990E-2,2.944377136E-1,8.510495314E-1
6.646854166E0,4.221221924E-1,-9.220825195E-2,1.719923401E-1,4.650493222E-1
6.656822166E0,3.505709839E-1,5.538482666E-2,9.101074219E-2,3.664020319E-1
6.666790166E0,3.821553040E-1,1.523831177E-1,3.622467041E-2,4.130078905E-1
6.676757167E0,3.209326172E-1,1.390608215E-1,4.790039062E-3,3.497979436E-1
6.686725167E0,2.862048340E-1,2.429447937E-1,-8.996292114E-2,3.860423642E-1
6.696693167E0,4.040098572E-1,6.420149231E-1,-3.722758484E-1,8.449830966E-1
6.706661167E0,9.294172668E-1,1.735790405E0,-7.809260559E-1,2.118166729E0
6.716629167E0,1.943408661E0,4.414020996E0,-3.776496735E0,6.125548642E0
6.726597167E0,3.312012634E0,8.168812866E0,-5.588329010E0,1.043687465E1
6.736565167E0,5.694458313E0,1.485825211E1,-6.615642700E0,1.723256335E1
6.746533167E0,5.143454132E0,2.921699295E1,-2.743225433E1,4.040564781E1
6.756500166E0,4.174818420E-1,4.495855820E1,-3.446388199E1,5.664984914E1
6.766468166E0,7.578739929E-1,5.396981918E1,1.313653244E1,5.555073573E1
6.776436166E0,-5.434898071E0,6.569418823E1,3.404819641E1,7.419261529E1
6.786404166E0,-1.525013718E1,6.859964630E1,4.051385101E1,8.111627630E1
6.796372166E0,-1.734458176E1,5.527884705E1,1.810859299E1,6.070013663E1
6.806340166E0,-9.904453583E0,3.875979858E1,-1.424033707E1,4.246418946E1
6.816307167E0,-3.223396912E0,2.636856628E1,-1.252101242E1,2.936779405E1
6.826275167E0,-3.551215210E0,1.630544266E1,6.424639893E-1,1.670004041E1
6.836243167E0,-2.873724060E0,7.633825378E0,2.456990662E0,8.518825212E0
6.846211167E0,-1.792372742E0,7.220983887E-1,2.341281281E0,3.035724652E0
6.856179167E0,-7.156617737E-1,-3.441643066E0,8.416996765E-1,3.614628213E0
6.866147167E0,2.037263489E-1,-4.433779907E0,9.963281250E-1,4.548909586E0
6.876115167E0,7.439529419E-1,-3.366199951E0,1.719624023E0,3.852515396E0
6.886082166E0,1.203796692E0,-2.745291138E0,1.629511414E0,3.411899376E0
6.896050166E0,1.284927979E0,-2.633922729E0,9.620494080E-1,3.084498001E0
6.906018166E0,1.294508057E0,-2.379302216E0,3.191363525E-1,2.727394022E0
6.915986166E0,1.552272034E0,-2.112856293E0,-8.367599487E-2,2.623111102E0
6.925954166E0,1.706002350E0,-1.824106750E0,-5.114863586E-1,2.549397527E0
6.935922166E0,1.920356598E0,-1.596579895E0,-6.391708374E-1,2.577862716E0
6.945890166E0,2.007176056E0,-1.284179535E0,-8.478369141E-1,2.529169870E0
6.955857167E0,1.967358856E0,-6.004014587E-1,-1.104253693E0,2.334600394E0
6.965825167E0,1.427581329E0,2.327659607E-1,-1.094374237E0,1.813787037E0
6.975793167E0,6.813830566E-1,9.870474243E-1,-5.709127808E-1,1.328339900E0
6.985761167E0,7.288343811E-1,2.161654816E0,1.619182892E0,2.797446038E0
6.995729167E0,7.957452393E-1,3.815116425E0,4.378395081E0,5.861626677E0
7.005697167E0,1.292562103E0,6.492748260E0,5.578000488E0,8.656823102E0
7.015665167E0,1.668280792E0,9.698032837E0,5.974825287E0,1.151232118E1
7.025632166E0,1.393751678E0,1.231099915E1,5.268893280E0,1.346344978E1
7.035600166E0,3.088078308E-1,1.377555359E1,4.200115814E0,1.440493706E1
7.045568166E0,-5.563929749E-1,1.759920227E1,2.031425629E0,1.772479009E1
7.055536166E0,-1.132544861E0,2.219734039E1,-2.115850067E0,2.232669702E1
7.065504166E0,-2.737507324E0,2.488066040E1,-6.577172699E0,2.588050249E1
7.075472166E0,-3.299139404E0,2.433399719E1,-3.797153778E0,2.484846307E1
7.085440166E0,-2.918630676E0,2.043879730E1,1.182540894E0,2.067997203E1
7.095407167E0,-1.964065704E0,1.584859268E1,4.336033173E0,1.654800978E1
7.105375167E0,-4.951702881E-1,1.285885986E1,5.132526855E0,1.385417997E1
7.115343167E0,1.100212097E0,1.078417419E1,3.981121216E0,1.154808235E1
7.125311167E0,1.980830841E0,8.994495850E0,2.116299133E0,9.450045949E0
7.135279167E0,2.270478516E0,7.259154510E0,6.057902527E-1,7.630031371E0
7.145247167E0,2.301314392E0,5.814209290E0,-5.498066711E-1,6.277209967E0
7.155215167E0,2.080074463E0,4.797822876E0,-9.586065674E-1,5.316459411E0
7.165182166E0,1.624122620E0,4.264481964E0,-6.879693604E-1,4.614854553E0
7.175150166E0,1.131047974E0,4.300556946E0,-2.050735474E-2,4.446850584E0
7.185118166E0,9.291178894E-1,5.004692688E0,8.301736450E-1,5.157460347E0
7.195086166E0,1.054107971E0,6.700516205E0,1.609004059E0,6.971151633E0
7.205054167E0,1.232087860E0,8.592282257E0,2.190694427E0,8.952345891E0
7.215022167E0,1.365460510E0,1.035232224E1,2.263892212E0,1.068458076E1
7.224990542E0,1.115180969E0,1.160476776E1,1.999691620E0,1.182848384E1
7.234957541E0,1.305285645E-1,1.169218597E1,1.356179810E0,1.177129875E1
7.244925541E0,-1.524130554E0,1.048569489E1,2.977308655E-1,1.060006674E1
7.254893541E0,-3.248993683E0,8.773255920E0,-4.146377563E-1,9.364715899E0
7.264861541E0,-4.754413147E0,6.778653717E0,-1.265767822E0,8.375963155E0
7.274829541E0,-5.993536377E0,5.062472534E0,-2.227218475E0,8.155464953E0
7.284797541E0,-6.888375549E0,3.094215546E0,-2.824027405E0,8.062196868E0
7.294765541E0,-7.189848633E0,9.957293701E-1,-2.851420441E0,7.798461314E0
7.304732542E0,-6.501879272E0,-2.857557678E-1,-2.467019806E0,6.960048646E0
7.314700542E0,-4.962181091E0,1.769320679E-1,-3.082090759E0,5.844127787E0
7.324668542E0,-3.373983765E0,1.910926208E0,-5.594615936E0,6.806991471E0
7.334636542E0,-4.139791260E0,3.450025635E0,-5.981710968E0,8.051174738E0
7.344604542E0,-6.109096069E0,4.653822327E0,-1.238225098E0,7.778966411E0
7.354572542E0,-6.019881592E0,5.739963684E0,3.811374207E0,9.149466149E0
7.364540542E0,-5.904471588E0,5.444328461E0,6.267616425E0,1.018756658E1
7.374507541E0,-6.722221069E0,4.031266937E0,6.051465912E0,9.902505183E0
7.384475541E0,-7.302264862E0,2.255060577E0,3.989204407E0,8.621027904E0
7.394443541E0,-7.142397308E0,1.072669373E0,7.321275330E-1,7.259508910E0
7.404411541E0,-6.863078156E0,7.458988953E-1,-1.585053864E0,7.083120970E0
7.414379541E0,-6.849755859E0,1.698817291E0,-2.198478241E0,7.391782065E0
7.424347541E0,-6.824458466E0,4.336631927E0,-2.476899261E0,8.456632886E0
7.434314542E0,-6.918762360E0,8.185278625E0,-2.671045532E0,1.104547613E1
7.444282542E0,-6.903045044E0,1.335567673E1,-2.858006744E0,1.530340924E1
7.454250542E0,-7.395670624E0,1.979289047E1,-2.628533936E0,2.129233777E1
7.464218542E0,-7.743397522E0,2.907733337E1,3.787124634E-2,3.009074535E1
7.474186542E0,-7.616461487E0,3.872896271E1,9.389674072E0,4.057226907E1
7.484154542E0,-8.431516571E0,4.304508728E1,1.202449493E1,4.548140817E1
7.494122542E0,-9.178163910E0,4.224859360E1,-4.699477386E0,4.348870476E1
7.504089541E0,-8.287366333E0,3.784445206E1,-1.063119232E1,4.017343951E1
7.514057541E0,-6.848857727E0,3.247017792E1,2.911894684E0,3.331213648E1
7.524025541E0,-6.003266144E0,2.986230103E1,3.972439270E0,3.071769035E1
7.533993541E0,-6.113886108E0,2.790422287E1,7.547305298E-1,2.857612422E1
7.543961542E0,-6.861132202E0,2.600631958E1,-3.845503235E-1,2.689891582E1
7.553929542E0,-7.791148224E0,2.450090012E1,6.066883850E-1,2.571700153E1
7.563897542E0,-8.409512329E0,2.402548874E1,2.149979095E0,2.554537956E1
7.573864541E0,-8.601562958E0,2.387265656E1,3.994742889E0,2.568751812E1
7.583832541E0,-8.247698822E0,2.285776703E1,6.154302063E0,2.506745865E1
7.593800541E0,-6.289470978E0,2.152808212E1,5.037474518E0,2.298677695E1
7.603768541E0,-4.510570221E0,1.867486542E1,1.510957947E0,1.927119187E1
7.613736541E0,-3.965104523E0,1.428808777E1,-4.783752136E0,1.558062227E1
7.623704541E0,-3.561394043E0,9.219028931E0,-1.106843307E1,1.483860616E1
7.633672541E0,-2.149380341E0,4.250261536E0,-8.527017975E0,9.767015640E0
7.643639542E0,-1.073118439E0,9.416917419E-1,1.937421112E0,2.406650595E0
7.653607542E0,-6.786886597E-1,1.667532349E-1,7.197033691E0,7.230886453E0
7.663575542E0,-9.527687073E-1,-5.878276062E-1,8.693471832E0,8.765258810E0
7.673543542E0,-2.170336761E0,-2.665806427E0,9.613758087E0,1.020985946E1
7.683511542E0,-2.758014679E0,-4.304897919E0,8.259973297E0,9.714213809E0
7.693479542E0,-2.493664398E0,-5.375022583E0,4.344266052E0,7.347236040E0
7.703447542E0,-2.265389099E0,-6.094127197E0,2.204914856E-1,6.505304802E0
7.713414541E0,-2.537822571E0,-6.866071930E0,-3.789220276E0,8.242674168E0
7.723382541E0,-2.264191589E0,-6.865922241E0,-6.103108521E0,9.461257072E0
7.733350541E0,-1.026565247E0,-5.399122467E0,-4.781806183E0,7.284917981E0
7.743318541E0,1.785786438E-1,-3.582799530E0,-2.309996338E0,4.266664492E0
7.753286541E0,4.650828552E-1,-2.432142334E0,-1.027164001E0,2.680799187E0
7.763254541E0,3.143463135E-1,-1.949845276E0,-4.475692749E-1,2.025099617E0
7.773222541E0,2.213896179E-1,-1.645977173E0,-2.439926147E-1,1.678626406E0
7.783189542E0,2.305206299E-1,-1.373843079E0,-4.607418823E-1,1.467265364E0
7.793157542E0,2.424957275E-1,-1.157393188E0,-7.932005310E-1,1.423913710E0
7.803125542E0,1.880090332E-1,-1.035247192E0,-1.030756531E0,1.472936920E0
7.813093542E0,3.038681030E-2,-8.788224792E-1,-1.131047974E0,1.432662496E0
7.823061542E0,-1.317260742E-2,-7.315287781E-1,-9.568103027E-1,1.204489031E0
7.833029542E0,4.400848389E-2,-5.328918457E-1,-5.968089294E-1,8.013060365E-1
7.842997542E0,1.121168518E-1,-3.402424622E-1,-2.541714478E-1,4.392473635E-1
7.852964541E0,2.841091919E-1,-2.109114075E-1,6.466552734E-2,3.596988812E-1
7.862932541E0,4.760101318E-1,-1.911524963E-1,3.775149536E-1,6.369006694E-1
7.872900541E0,6.185137939E-1,-2.206411743E-1,6.738986206E-1,9.409469655E-1
7.882868541E0,6.909631348E-1,-2.145039368E-1,8.972341919E-1,1.152593245E0
7.892836541E0,6.969506836E-1,-1.362167358E-1,1.023272095E0,1.245544473E0
7.902804541E0,6.994953918E-1,-1.357676697E-1,1.077609100E0,1.291885458E0
7.912772541E0,6.716532898E-1,-1.884580994E-1,1.149609375E0,1.344706775E0
7.922739542E0,7.216493225E-1,-2.068698120E-1,1.222657471E0,1.434734873E0
7.932707542E0,7.717950439E-1,-2.272274780E-1,1.257085876E0,1.492502870E0
7.942675542E0,8.849597168E-1,-1.817221069E-1,1.227597198E0,1.524195364E0
7.952643542E0,1.060544586E0,-5.239105225E-2,1.270408173E0,1.655728410E0
7.962611542E0,1.259031830E0,7.664062500E-2,1.417851562E0,1.897719154E0
7.972579542E0,1.499132538E0,1.740879822E-1,1.636097717E0,2.225875273E0
7.982546541E0,1.582359467E0,2.808160400E-1,1.602866821E0,2.269779984E0
7.992514541E0,1.582658844E0,5.191204834E-1,1.250200195E0,2.082617493E0
8.002482541E0,1.641785889E0,8.714877319E-1,1.118623810E0,2.169394155E0
8.012450541E0,1.943408661E0,1.401984558E0,1.373094635E0,2.761844818E0
8.022418541E0,1.934577026E0,1.745071106E0,1.378034363E0,2.947344591E0
8.032386541E0,1.763782196E0,1.927541656E0,1.419647827E0,2.973507092E0
8.042354541E0,1.572929077E0,2.294728088E0,1.786983948E0,3.306538146E0
8.052321542E0,1.382525024E0,2.361189880E0,1.710493011E0,3.226821879E0
8.062289542E0,1.628463593E0,2.605631561E0,1.281335449E0,3.329118508E0
8.072257542E0,2.373763733E0,3.789070587E0,1.311871948E0,4.659701512E0
8.082225542E0,4.815635834E0,7.335196381E0,2.209555206E0,9.048623577E0
8.092193542E0,8.393944702E0,1.430275726E1,4.196074219E0,1.710655465E1
8.102161542E0,9.192833405E0,2.622172165E1,1.265767822E0,2.781526632E1
8.112129542E0,2.591560822E0,5.024810852E1,-2.209525269E1,5.495260493E1
8.122096541E0,-7.963589630E0,7.567917435E1,-5.777580460E1,9.554475279E1
8.132064541E0,-1.660796356E0,8.267831955E1,3.273003754E1,8.893659610E1
8.142032541E0,-1.620979156E1,7.969247864E1,6.213863205E1,1.023467542E2
8.152000541E0,-1.817026474E1,5.961053925E1,1.055320450E1,6.320557756E1
8.161968541E0,-6.860832825E0,4.143458633E1,-2.474115051E1,4.874444071E1
8.171936541E0,-4.812192993E0,2.586950409E1,-9.794881439E0,2.807718194E1
8.181904541E0,-4.717889099E0,1.400203262E1,1.243314514E0,1.482771817E1
8.191871542E0,-2.268083496E0,3.348836060E0,7.279362488E-1,4.109598141E0
8.201839542E0,1.842668152E-1,-4.808301086E0,1.794169006E0,5.135441171E0
8.211807542E0,1.979783020E0,-7.002288666E0,-4.659809875E-1,7.291688806E0
8.221775542E0,1.974693604E0,-6.047424316E0,-2.421963501E0,6.807103855E0
8.231743167E0,2.035167847E0,-4.068988495E0,-5.644761658E-1,4.584452953E0
8.241711167E0,2.425855408E0,-2.814147949E0,6.265969849E-1,3.767867689E0
8.251679167E0,2.652334442E0,-2.872676239E0,9.207353210E-1,4.016827143E0
8.261646166E0,2.505789185E0,-2.861748962E0,7.045848083E-1,3.868465628E0
8.271614166E0,2.135309601E0,-2.636916504E0,4.300556946E-1,3.420208128E0
8.281582166E0,2.001936951E0,-2.323767700E0,1.405577087E-1,3.070407847E0
8.291550166E0,1.834285583E0,-2.037562866E0,4.537065125E-1,2.778869489E0
8.301518166E0,1.462608490E0,-1.917063446E0,7.783813477E-1,2.533817944E0
8.311486166E0,9.306147766E-1,-1.681453400E0,1.137783966E0,2.233356611E0
8.321453167E0,2.128573608E-1,-1.337618408E0,2.038311310E0,2.447293251E0
8.331421167E0,-5.367837524E-1,-5.300477600E-1,3.206631775E0,3.294172850E0
8.341389167E0,-8.102650452E-1,9.027726746E-1,3.262465668E0,3.480691049E0
8.351357167E0,-8.611592102E-1,2.343825989E0,1.973047028E0,3.182456602E0
8.361325167E0,-1.150058441E0,5.354964294E0,-1.789528656E0,5.762003976E0
8.371293167E0,-1.651066589E0,1.061263092E1,-8.037535858E0,1.341476569E1
8.381261167E0,-3.812272339E0,1.330852478E1,-2.251318359E0,1.402564389E1
8.391228166E0,-6.961872711E0,1.481918335E1,4.393513641E0,1.695225144E1
8.401196166E0,-8.457712097E0,1.768108200E1,7.485184479E0,2.098050384E1
8.411164166E0,-7.539671173E0,2.043191162E1,6.939419403E0,2.285749758E1
8.421132166E0,-5.301076355E0,2.129202301E1,4.144581299E0,2.233000691E1
8.431100166E0,-3.242706757E0,2.060555054E1,1.856888580E0,2.094163067E1
8.441068166E0,-8.385562134E-1,1.893846725E1,-1.405876465E0,1.900908223E1
8.451036166E0,2.587668915E0,1.742541367E1,-7.841743011E0,1.928299783E1
8.461003167E0,4.312681732E0,1.509730499E1,-7.305857391E0,1.731771908E1
8.470971167E0,4.266278229E0,1.184920944E1,-5.818400574E0,1.387294776E1
8.480939167E0,1.987866211E0,8.809929657E0,-3.587290192E0,9.717773590E0
8.490907167E0,-7.397616577E-1,6.879394226E0,2.754871216E0,7.447323522E0
8.500875167E0,-9.827064514E-1,6.279890900E0,4.522695007E0,7.801122471E0
8.510843167E0,-7.613168335E-1,6.103557587E0,3.037483521E0,6.859979932E0
8.520811167E0,-1.026116180E0,5.971083069E0,1.283281403E0,6.193024995E0
8.530778166E0,-1.395398254E0,6.118376770E0,2.207908630E-1,6.279364553E0
8.540746166E0,-1.589843903E0,6.908583527E0,7.783813477E-2,7.089583116E0
8.550714166E0,-1.556163940E0,8.624914398E0,4.559518433E-1,8.776029095E0
8.560682166E0,-1.629960480E0,1.036788986E1,3.797602844E-1,1.050210118E1
8.570650166E0,-1.900447998E0,1.125554398E1,-4.430786133E-2,1.141494354E1
8.580618166E0,-2.452649689E0,1.137050491E1,1.077758789E-1,1.163251856E1
8.590586166E0,-2.951711884E0,1.097996704E1,1.168470154E0,1.142968074E1
8.600553167E0,-3.047362976E0,1.038345749E1,2.536924438E0,1.111479177E1
8.610521167E0,-2.871029663E0,9.747280426E0,3.563040619E0,1.076789420E1
8.620489167E0,-2.676584015E0,9.050928497E0,4.102219391E0,1.029133677E1
8.630457167E0,-2.570005646E0,8.299640808E0,3.772305450E0,9.472024861E0
8.640425167E0,-2.085762634E0,7.542964325E0,2.737956390E0,8.291147193E0
8.650393167E0,-1.244212646E0,6.653963013E0,1.396745453E0,6.911887350E0
8.660360166E0,-2.071691895E-1,5.761069794E0,-3.227288818E-1,5.773820068E0
8.670328166E0,1.088237000E0,6.161786499E0,-1.778302002E0,6.504938942E0
8.680296166E0,2.174228668E0,7.905809784E0,-4.061054993E0,9.149932584E0
8.690264166E0,1.376537476E0,8.976533203E0,-4.599185944E0,1.017966184E1
8.700232166E0,-5.701643372E-1,8.456215210E0,-2.940185852E0,8.970917227E0
8.710200166E0,-2.119292908E0,7.200027466E0,-1.834884338E0,7.726486813E0
8.720168166E0,-2.781216431E0,6.395450592E0,-1.142274628E0,7.066947321E0
8.730135167E0,-3.184777222E0,5.748346252E0,2.983296204E-1,6.578395789E0
8.740103167E0,-3.316353607E0,4.988975372E0,1.733395386E0,6.236404098E0
8.750071167E0,-3.335214386E0,3.933370514E0,1.845512238E0,5.477314490E0
8.760039167E0,-2.710862732E0,2.571801910E0,1.841320953E0,4.165741791E0
8.770007167E0,-1.965412903E0,1.370400238E0,1.997146912E0,3.119205103E0
8.779975167E0,-1.761536865E0,6.722520447E-1,2.463127899E0,3.101924239E0
8.789943167E0,-1.852846985E0,5.733078003E-1,2.194286957E0,2.928586525E0
8.799910166E0,-2.666704559E0,1.520238647E0,1.515448608E0,3.423305893E0
8.809878166E0,-4.656067657E0,3.209176483E0,2.562670898E-1,5.660693646E0
8.819846166E0,-7.470814362E0,5.989644470E0,-1.403481445E0,9.677740866E0
8.829814166E0,-1.021400986E1,9.815987549E0,-4.235891418E0,1.478588465E1
8.839782166E0,-1.163949554E1,1.443373489E1,-5.708978119E0,1.940110798E1
8.849750166E0,-1.164428558E1,1.954440720E1,-1.717827759E0,2.281499883E1
8.859717167E0,-1.096335159E1,2.498843628E1,3.163820801E0,2.747047120E1
8.869685167E0,-8.857081604E0,2.997621414E1,6.553970947E0,3.193706067E1
8.879653167E0,-5.505700836E0,3.318763596E1,5.649551697E0,3.411230506E1
8.889621167E0,-1.788630524E0,3.565091354E1,3.547772369E0,3.587162562E1
8.899589167E0,1.327738953E0,3.823992966E1,1.004111938E0,3.827614599E1
8.909557167E0,2.611170044E0,4.017016571E1,-2.677182770E0,4.034386855E1
8.919525167E0,1.790127411E0,3.878569473E1,-6.463259583E0,3.936125502E1
8.929492166E0,1.079255676E-1,3.207499969E1,-3.933969269E0,3.231552827E1
8.939460166E0,-1.405577087E0,2.709814911E1,1.310674438E0,2.716621430E1
8.949428166E0,-3.119512939E0,2.384511383E1,5.634283447E0,2.469951345E1
8.959396167E0,-3.952830048E0,2.072874435E1,8.175997925E0,2.263078987E1
8.969364167E0,-4.652475128E0,1.770967255E1,6.934030609E0,1.957955074E1
8.979332167E0,-5.498066711E0,1.462698303E1,9.178912354E-1,1.565311134E1
8.989300167E0,-5.717660065E0,1.194605804E1,-2.500400391E0,1.347783148E1
8.999267166E0,-5.137316895E0,1.011925690E1,-3.800297241E0,1.196802591E1
9.009235166E0,-4.506079559E0,8.206684113E0,-7.284302216E0,1.186235541E1
9.019203166E0,-4.534071350E0,5.796995087E0,-9.864037628E0,1.230699774E1
9.029171166E0,-4.619393921E0,4.235891418E0,7.696994019E-1,6.314587356E0
9.039139166E0,-4.997357941E0,2.355801086E0,9.921667786E0,1.135618232E1
9.049107166E0,-5.326373749E0,8.657995605E-1,7.962392120E0,9.618708566E0
9.059075166E0,-5.766608276E0,-1.052611084E0,5.642815704E0,8.136530599E0
9.069042167E0,-5.010829926E0,-3.061583405E0,2.134112091E0,6.247891156E0
9.079010167E0,-3.030148773E0,-4.173321533E0,-4.251159668E-2,5.157540251E0
9.088978167E0,-1.545685730E0,-3.870800629E0,6.824308777E-1,4.223500182E0
9.098946167E0,-7.164102173E-1,-3.550017700E0,5.378315735E-1,3.661301964E0
9.108914167E0,-2.125579834E-1,-3.510948944E0,-1.019380188E-1,3.518854181E0
9.118882167E0,-2.335144043E-1,-3.698209534E0,-5.375321960E-1,3.744358903E0
9.128850167E0,-1.046324158E-1,-3.162623291E0,-7.298822021E-1,3.247439307E0
9.138817166E0,1.787283325E-1,-2.276316376E0,-9.861492920E-1,2.487177212E0
9.148785166E0,1.833686829E-1,-1.744322662E0,-1.031804352E0,2.034921582E0
9.158753166E0,-6.436614990E-3,-1.629361725E0,-1.039887543E0,1.932932270E0
9.168721166E0,-1.197509766E-2,-1.482816467E0,-1.248703308E0,1.938594344E0
9.178689166E0,-2.424957275E-2,-1.273701324E0,-1.483115845E0,1.955130613E0
9.188657166E0,1.368154907E-1,-9.868977356E-1,-1.599723358E0,1.884622095E0
9.198624167E0,1.071771240E-1,-8.818162537E-1,-1.789678345E0,1.998007863E0
9.208592167E0,3.583547974E-1,-9.211843872E-1,-1.588347015E0,1.870787288E0
9.218560167E0,6.909631348E-1,-1.020278320E0,-1.074465637E0,1.634892752E0
9.228528167E0,1.025966492E0,-1.046922913E0,-5.086422729E-1,1.551570749E0
9.238496167E0,1.780247955E0,-6.221063232E-1,4.915777588E-1,1.948832408E0
9.248464167E0,2.942730560E0,1.773811340E-1,1.928140411E0,3.522620142E0
9.258432167E0,3.358266449E0,7.104226685E-1,2.872676239E0,4.476038727E0
9.268399166E0,3.382665710E0,8.384065247E-1,3.193159790E0,4.726692528E0
9.278367166E0,3.616030426E0,8.619076538E-1,3.678001556E0,5.229364808E0
9.288335166E0,3.432661743E0,7.234455872E-1,3.520529022E0,4.969976334E0
9.298303166E0,3.015778656E0,4.701722717E-1,2.791694641E0,4.136368194E0
9.308271166E0,2.276166687E0,2.225871277E-1,1.965562592E0,3.015612064E0
9.318239166E0,1.345402222E0,-1.172062683E-1,1.078357544E0,1.728207001E0
9.328207166E0,6.110293579E-1,-2.591111755E-1,2.953358459E-1,7.264425231E-1
9.338174167E0,2.360591125E-1,-3.140469360E-1,8.247848511E-2,4.014375209E-1
9.348142167E0,7.140151978E-2,-3.158432007E-1,-8.831634521E-3,3.239337929E-1
9.358110167E0,2.260299683E-2,-1.933978271E-1,-7.304809570E-2,2.079654762E-1
9.368078167E0,1.932481384E-1,2.487826538E-1,-3.637435913E-2,3.171131436E-1
9.378046167E0,7.297325134E-1,1.309027863E0,2.152523804E-1,1.514066403E0
9.388014167E0,2.201172638E0,3.590134277E0,5.551954651E-1,4.247642536E0
9.397981166E0,5.700445862E0,8.743168488E0,1.062640228E0,1.049129556E1
9.407949166E0,9.923913116E0,1.724593689E1,3.303929443E0,2.016983739E1
9.417917166E0,1.030876282E1,3.004611877E1,1.797611847E0,3.181621053E1
9.427885166E0,5.968688049E0,4.673985397E1,-5.198988647E0,4.740536541E1
9.437853166E0,-1.126257935E0,6.672719009E1,-1.676319077E1,6.880981703E1
9.447821166E0,-1.244227615E1,7.606956253E1,-1.321721466E1,7.820539203E1
9.457789166E0,-1.758513153E1,7.325062454E1,2.784285049E1,8.031260904E1
9.467756167E0,-1.768078262E1,4.966043060E1,2.629581757E0,5.277957126E1
9.477724167E0,-8.430319061E0,3.184732315E1,-1.756312729E1,3.733343959E1
9.487692167E0,-1.397793274E0,2.285282730E1,3.808679810E0,2.321016121E1
9.497660167E0,-1.890418854E0,1.434481979E1,6.476132812E0,1.585206089E1
9.507628167E0,-1.382525024E0,6.171815643E0,3.997586975E0,7.482204582E0
9.517596167E0,-8.220904541E-1,-2.380050659E-2,2.355950775E0,2.495376371E0
9.527564167E0,-6.038442993E-1,-4.158352661E0,8.780740356E-1,4.292730926E0
9.537531166E0,1.511856079E-1,-4.655019836E0,4.466711426E-1,4.678844075E0
9.547499166E0,8.090675354E-1,-3.833378448E0,5.071453857E-1,3.950516048E0
9.557467166E0,1.143771515E0,-3.827390900E0,7.015910339E-1,4.055781596E0
9.567435166E0,1.065484314E0,-3.909719696E0,5.393284607E-1,4.088036217E0
9.577403166E0,1.021026764E0,-3.365900574E0,5.950126648E-1,3.567327066E0
9.587371166E0,9.184899902E-1,-2.800077209E0,6.081852722E-1,3.008977495E0
9.597338167E0,9.306147766E-1,-2.528990936E0,5.388793945E-1,2.748132097E0
9.607306167E0,8.662486267E-1,-2.205812988E0,5.351371765E-1,2.429479249E0
9.617274167E0,9.744735718E-1,-1.949845276E0,4.234693909E-1,2.220545354E0
9.627242167E0,9.671388245E-1,-1.579814758E0,2.529739380E-1,1.869536838E0
9.637210167E0,8.505313110E-1,-1.156495056E0,6.197113037E-2,1.436915010E0
9.647178167E0,7.197033691E-1,-4.194277954E-1,-1.158590698E-1,8.410207721E-1
9.657146167E0,2.034269714E-1,9.665400696E-1,-3.821553040E-1,1.059067946E0
9.667113166E0,-1.010398865E-1,2.994522858E0,-1.238674164E0,3.242173636E0
9.677081166E0,-4.819976807E-2,4.932991791E0,-9.472302246E-1,5.023343142E0
9.687049166E0,-1.104702759E-1,6.159690857E0,1.386117554E0,6.314690571E0
9.697017166E0,-1.526824951E-2,7.556136932E0,3.493435364E0,8.324633872E0
9.706985166E0,4.754113770E-1,1.002884491E1,5.017266541E0,1.122393468E1
9.716953166E0,4.480183411E-1,1.382989059E1,5.026397552E0,1.472179563E1
9.726920167E0,-5.505551147E-1,1.615829865E1,4.224365387E0,1.671044550E1
9.736888167E0,-5.351371765E-1,1.964754272E1,3.022963715E0,1.988594017E1
9.746856167E0,3.284170532E-1,2.376188690E1,1.940265198E0,2.384323292E1
9.756824167E0,4.044589233E-1,2.511671951E1,1.351539459E0,2.515630826E1
9.766792167E0,4.254153442E-1,2.422771820E1,8.075706482E-1,2.424490622E1
9.776760167E0,4.029620361E-1,1.933229828E1,1.444196777E0,1.939035429E1
9.786728167E0,1.257684631E0,1.508233612E1,1.586700439E-1,1.513551485E1
9.796695166E0,2.085014191E0,1.275901749E1,-2.114951935E0,1.310010813E1
9.806663166E0,2.179617462E0,1.084375031E1,-2.628084869E0,1.136857436E1
9.816631166E0,1.822909241E0,9.249864807E0,-1.294208679E0,9.516195309E0
9.826599166E0,1.319356384E0,8.100854187E0,4.475692749E-1,8.219784552E0
9.836567167E0,9.304650879E-1,7.361840973E0,1.692530365E0,7.610987244E0
9.846535167E0,6.448590088E-1,6.804250488E0,2.502795410E0,7.278574910E0
9.856503167E0,4.034111023E-1,6.446195068E0,2.878813477E0,7.071332152E0
9.866470166E0,1.210981750E-1,6.278693390E0,2.744542694E0,6.853405726E0
9.876438166E0,-7.723937988E-2,6.475084991E0,2.506986694E0,6.943894718E0
9.886406166E0,7.723937988E-2,7.223079529E0,2.169738007E0,7.542321050E0
9.896374166E0,5.269042969E-1,8.356223145E0,1.375339966E0,8.485025245E0
9.906342166E0,9.178912354E-1,9.520651703E0,8.870553589E-1,9.605841992E0
9.916310166E0,1.238973541E0,1.077833633E1,4.312532043E-1,1.085788050E1
9.926278166E0,1.251547394E0,1.200308945E1,-5.867797852E-2,1.206830437E1
9.936245167E0,5.975573730E-1,1.214274902E1,7.417076111E-1,1.218004757E1
9.946213167E0,-3.761677551E-1,1.105840393E1,1.594184875E0,1.117905296E1
9.956181167E0,-9.265731812E-1,9.963880005E0,1.290316772E0,1.008971556E1
9.966149167E0,-1.309776306E0,9.003776550E0,3.718267822E-1,9.106138660E0
9.976117167E0,-1.734443207E0,7.775879974E0,-5.059478760E-1,7.983018594E0
9.986085167E0,-1.453327789E0,6.394402771E0,-8.876541138E-2,6.558081103E0
9.996052166E0,-9.220825195E-1,5.092709656E0,6.888674927E-1,5.221155642E0
1.000602017E1,-7.759863281E-1,4.052373047E0,1.773811340E0,4.491134463E0
1.001598817E1,-9.253756714E-1,3.141816559E0,2.058070221E0,3.868201708E0
1.002595617E1,-1.822909241E0,2.023342438E0,1.384770355E0,3.055241669E0
1.003592417E1,-3.785178680E0,2.860551453E-1,-4.514611816E-1,3.822724472E0
1.004589217E1,-7.024442596E0,-2.153571625E0,-1.813927917E0,7.567760503E0
1.005586017E1,-9.322014771E0,-2.471510468E0,-1.645079041E-1,9.645485277E0
1.006582717E1,-1.077055252E1,-1.651365967E0,1.283880157E0,1.097178925E1
1.007579517E1,-1.287727158E1,-7.771838379E-1,-1.134640503E-1,1.290120196E1
1.008576317E1,-1.614871857E1,2.447410583E-1,-5.909111938E0,1.719763395E1
1.009573117E1,-1.588421860E1,2.099084930E0,-5.963448944E0,1.709611890E1
1.010569917E1,-1.201730988E1,4.014950867E0,-5.369334412E-1,1.268163494E1
1.011566717E1,-9.230405273E0,4.959486694E0,1.307980042E0,1.055972071E1
1.012563517E1,-7.483238525E0,6.356980591E0,2.242337036E-1,9.821422596E0
1.013560217E1,-6.303691406E0,8.329279175E0,7.665559387E-1,1.047382571E1
1.014557017E1,-5.842201080E0,1.082234482E1,9.756710815E-1,1.233719558E1
1.015553817E1,-5.645061035E0,1.408466080E1,1.061442719E0,1.521088572E1
1.016550617E1,-5.465883636E0,1.818688019E1,2.003882904E0,1.909591688E1
1.017547417E1,-5.066214752E0,2.361055161E1,3.159779205E0,2.435382688E1
1.018544217E1,-3.325484619E0,2.913556229E1,3.170556793E0,2.949563134E1
1.019540917E1,-1.295256500E0,3.358026947E1,3.840264130E0,3.382395328E1
1.020537717E1,4.164340210E-1,3.633858353E1,2.637066193E0,3.643652272E1
1.021534517E1,2.410437469E0,3.798890167E1,-6.574478302E0,3.862888329E1
1.022531317E1,4.391417999E0,3.898433167E1,-1.922841431E1,4.368975377E1
1.023528179E1,1.130299530E0,3.453648102E1,-4.111649780E0,3.479873219E1
1.024524979E1,-1.906734924E0,3.013548294E1,5.335654449E0,3.066353174E1
1.025521779E1,-3.297043762E0,2.835987534E1,2.948119354E0,2.870269037E1
1.026518479E1,-5.281766510E0,2.620046585E1,3.512445831E0,2.695735046E1
1.027515279E1,-8.039481812E0,2.420810898E1,5.219795380E0,2.603674465E1
1.028512079E1,-1.025083328E1,2.239837234E1,4.662204895E0,2.506995854E1
1.029508879E1,-1.048434769E1,2.021456360E1,2.299967194E0,2.288755070E1
1.030505679E1,-9.189689941E0,1.802940765E1,1.426832886E0,2.028659147E1
1.031502479E1,-6.687942352E0,1.616548370E1,1.504371643E0,1.755888864E1
1.032499279E1,-4.728367310E0,1.350641327E1,2.122586060E-1,1.431173332E1
1.033495979E1,-4.249064026E0,9.555678864E0,-3.399131470E0,1.099634659E1
1.034492779E1,-4.105811920E0,4.323609009E0,-5.226231995E0,7.928731755E0
1.035489579E1,-2.765948181E0,1.115330658E0,1.604363708E0,3.386504795E0
1.036486379E1,-5.652246094E-1,1.950294342E0,6.639143829E0,6.942719760E0
1.037483179E1,-7.694000244E-2,1.624272308E0,4.812342682E0,5.079647860E0
1.038479979E1,-1.848955078E0,-1.082099762E0,2.322570190E0,3.159732119E0
1.039476679E1,-4.229155426E0,-3.617527313E0,-2.282752991E-1,5.569952342E0
1.040473479E1,-4.521347809E0,-5.024750977E0,-7.702981567E-1,6.803239496E0
1.041470279E1,-3.381468201E0,-5.380710754E0,-1.952389984E0,6.648172837E0
1.042467079E1,-1.762734375E0,-4.893473969E0,-1.421743469E0,5.392093698E0
1.043463879E1,-5.688171387E-1,-4.241878967E0,-9.942324829E-1,4.393812506E0
1.044460679E1,-9.011260986E-2,-3.688779144E0,-1.022373962E0,3.828898063E0
1.045457479E1,2.689906311E-1,-3.004851379E0,-8.499325562E-1,3.134305844E0
1.046454179E1,3.935316467E-1,-2.248923340E0,-8.315208435E-1,2.429804572E0
1.047450979E1,2.478845215E-1,-1.973795471E0,-6.685098267E-1,2.098623522E0
1.048447779E1,1.754351807E-1,-1.864822083E0,-5.393284607E-1,1.949157277E0
1.049444579E1,2.719844055E-1,-1.741628265E0,-3.712280273E-1,1.801403558E0
1.050441379E1,3.159928894E-1,-1.572030945E0,-3.698808289E-1,1.645583369E0
1.051438179E1,3.025209045E-1,-1.447639618E0,-2.649490356E-1,1.502457105E0
1.052434879E1,3.580554199E-1,-1.372645569E0,-2.046244812E-1,1.433258776E0
1.053431679E1,3.863465881E-1,-1.282832336E0,-2.583627319E-1,1.364431673E0
1.054428479E1,3.730242920E-1,-1.104702759E0,-3.598516846E-1,1.220249377E0
1.055425279E1,4.059558105E-1,-8.797206116E-1,-2.992277527E-1,1.014024518E0
1.056422079E1,5.321434021E-1,-6.093827820E-1,-1.200503540E-1,8.178851159E-1
1.057418879E1,6.718029785E-1,-3.893403625E-1,-2.604583740E-2,7.769063943E-1
1.058415679E1,7.945477295E-1,-2.032772827E-1,9.385482788E-2,8.254916576E-1
1.059412379E1,8.963360596E-1,-1.188528442E-1,2.236349487E-1,9.314273566E-1
1.060409179E1,8.978329468E-1,-1.109193420E-1,3.594026184E-1,9.734358443E-1
1.061405979E1,9.427395630E-1,-6.990463257E-2,5.890251160E-1,1.113820061E0
1.062402779E1,1.131646729E0,8.083190918E-2,1.057550812E0,1.550990598E0
1.063399579E1,1.401685181E0,2.552192688E-1,1.614991608E0,2.153614662E0
1.064396379E1,1.758243713E0,5.138813782E-1,2.232158203E0,2.887563899E0
1.065393179E1,2.018103333E0,7.247927856E-1,2.491419067E0,3.287131669E0
1.066389879E1,2.255509644E0,9.142987061E-1,2.392175446E0,3.412589814E0
1.067386679E1,2.335144043E0,9.891430664E-1,2.088457031E0,3.285263228E0
1.068383479E1,2.245181122E0,8.379574585E-1,1.623823242E0,2.894790648E0
1.069380279E1,2.191742249E0,7.677534485E-1,1.284778290E0,2.654022362E0
1.070377079E1,2.208357697E0,8.307723999E-1,1.233584747E0,2.662472127E0
1.071373879E1,2.594105530E0,1.148411865E0,1.521136780E0,3.219020102E0
1.072370579E1,3.001857605E0,1.748813324E0,1.864672394E0,3.942905053E0
1.073367379E1,3.565735016E0,2.514620819E0,2.508782959E0,5.033068249E0
1.074364179E1,4.475393372E0,3.482059021E0,3.431464233E0,6.627882591E0
1.075360979E1,6.802753601E0,6.945556641E0,5.064717865E0,1.096218868E1
1.076357779E1,1.014215927E1,1.660227539E1,5.402265930E0,2.019117183E1
1.077354579E1,8.372688904E0,3.185854980E1,-3.826043701E-1,3.294260921E1
1.078351379E1,5.637277222E-1,5.261304062E1,-2.273966263E1,5.731964836E1
1.079348079E1,-7.988737335E0,7.255202728E1,-4.238496002E1,8.440439220E1
1.080344879E1,-3.119512939E0,8.035215683E1,2.818638611E1,8.520958180E1
1.081341679E1,-1.495435226E1,6.762487335E1,4.759742065E1,8.403731671E1
1.082338479E1,-3.110486710E1,4.183455460E1,-6.796466675E0,5.257218537E1
1.083335279E1,-2.748210068E1,2.431992645E1,-2.003403900E1,4.181013512E1
1.084332079E1,-9.005123749E0,2.016082535E1,7.702382813E0,2.338541925E1
1.085328779E1,-5.175786896E0,1.377181137E1,4.700824585E0,1.544504161E1
1.086325579E1,-3.812571716E0,7.090155945E0,2.270328827E0,8.364233820E0
1.087322379E1,-2.616409149E0,3.725752258E-1,-1.574725342E-1,2.647490648E0
1.088319179E1,-1.380429382E0,-4.678970032E0,1.004561005E0,4.980711661E0
1.089315979E1,7.783813477E-3,-6.529871063E0,2.525099030E0,7.001100042E0
1.090312779E1,2.369422760E0,-6.318360901E0,2.656675415E0,7.252156434E0
1.091309579E1,2.780767365E0,-4.885989532E0,1.955683136E0,5.952332096E0
1.092306279E1,2.226769409E0,-3.561693420E0,2.127974854E0,4.708761939E0
1.093303079E1,1.726958771E0,-2.543211365E0,3.076103210E0,4.348875901E0
1.094299879E1,1.270707550E0,-1.813029785E0,3.262166290E0,3.942525027E0
1.095296679E1,1.437760162E0,-1.089135132E0,2.611469421E0,3.173821381E0
1.096293479E1,1.538949738E0,-6.562353516E-1,2.054777069E0,2.649739598E0
1.097290279E1,1.537003784E0,-2.957849121E-1,1.948947144E0,2.499652839E0
1.098287079E1,1.660796356E0,2.414479065E-1,1.483115845E0,2.239681727E0
1.099283779E1,1.564247131E0,8.445437622E-1,9.650431824E-1,2.022728750E0
1.100280579E1,1.341061249E0,1.781894531E0,8.759783936E-1,2.396024111E0
1.101277379E1,1.562899933E0,4.010011139E0,1.239422607E-1,4.305601842E0
1.102274179E1,2.350711670E0,6.141279144E0,1.228944397E-1,6.576948983E0
1.103270979E1,2.879262543E0,7.542664948E0,1.266815643E0,8.172317246E0
1.104267779E1,2.594255219E0,9.453441467E0,2.396217041E0,1.009155943E1
1.105264479E1,2.486329651E0,1.264794846E1,2.233954468E0,1.308216296E1
1.106261279E1,1.964065704E0,1.644016251E1,-1.974992981E0,1.667444436E1
1.107258079E1,8.397537231E-2,1.969978409E1,-3.137774963E0,1.994828756E1
1.108254879E1,-3.010539551E0,2.072440338E1,1.886077881E-1,2.094277481E1
1.109251679E1,-6.152505798E0,2.046708847E1,3.639830933E0,2.167956197E1
1.110248479E1,-8.406967621E0,1.899729492E1,4.210144958E0,2.119668935E1
1.111245279E1,-9.608369293E0,1.616892654E1,2.761008453E0,1.900994776E1
1.112241979E1,-7.977061615E0,1.252670059E1,7.316784668E-1,1.486899772E1
1.113238779E1,-4.199966125E0,9.574240265E0,-3.817062378E-1,1.046190670E1
1.114235579E1,-1.880090332E-1,8.383616180E0,-1.396146698E0,8.501152467E0
1.115232379E1,3.045267334E0,8.119864655E0,-3.730991364E0,9.440664791E0
1.116229179E1,4.854704590E0,7.688162384E0,-5.035229187E0,1.039372553E1
1.117225979E1,4.498744812E0,7.399412842E0,-3.369044037E0,9.291957437E0
1.118222679E1,3.024011536E0,7.509883118E0,-1.031205597E0,8.161272890E0
1.119219479E1,1.741777954E0,7.946674805E0,3.788621521E-1,8.144136997E0
1.120216279E1,9.042695618E-1,8.300988007E0,9.131011963E-1,8.399872566E0
1.121213079E1,3.603007507E-1,8.178243256E0,9.280700684E-1,8.238615990E0
1.122209879E1,3.044668579E-1,7.957302704E0,1.030008087E0,8.029463435E0
1.123206617E1,4.191284180E-3,7.527097321E0,1.719624023E0,7.721030917E0
1.124203417E1,-6.117778015E-1,6.973249054E0,2.483934631E0,7.427678352E0
1.125200117E1,-1.116528168E0,6.424041138E0,2.692600708E0,7.054433943E0
1.126196917E1,-1.431323547E0,6.143524475E0,2.276765442E0,6.706358248E0
1.127193717E1,-2.402653656E0,5.808072052E0,1.119072876E0,6.384259523E0
1.128190517E1,-3.905229034E0,5.782774658E0,-1.945953369E-1,6.980627759E0
1.129187317E1,-5.931714935E0,5.768254852E0,-3.106040955E-1,8.279763343E0
1.130184117E1,-7.950117645E0,5.265899506E0,7.604187012E-1,9.566206394E0
1.131180817E1,-9.738897858E0,4.222569122E0,1.286724243E0,1.069260870E1
1.132177617E1,-1.097382980E1,2.697390747E0,-5.049000549E-1,1.131175413E1
1.133174417E1,-1.099478622E1,1.135688324E0,-4.470453644E0,1.192308969E1
1.134171217E1,-1.041638901E1,-4.535568237E-1,-7.418722687E0,1.279626196E1
1.135168017E1,-8.917256470E0,-1.617236938E0,-6.080804901E0,1.091371186E1
1.136164817E1,-6.915319519E0,-1.201701050E0,-2.554587708E0,7.469380685E0
1.137161617E1,-5.862708435E0,5.204676819E-1,2.136058044E0,6.261388087E0
1.138158317E1,-6.234535217E0,2.520009613E0,4.819527740E0,8.273314056E0
1.139155117E1,-6.976691895E0,4.750221863E0,3.204386444E0,9.028118853E0
1.140151917E1,-7.557783508E0,7.240144043E0,7.487429810E-1,1.049287346E1
1.141148717E1,-7.585924988E0,9.546098785E0,-5.789959717E-1,1.220694459E1
1.142145517E1,-7.184908905E0,1.153546188E1,-5.424719238E-1,1.360088499E1
1.143142317E1,-6.573729858E0,1.370684647E1,4.450245667E-1,1.520820868E1
1.144139117E1,-5.911506958E0,1.658386368E1,1.358874207E0,1.765834047E1
1.145135817E1,-5.204976196E0,2.025512924E1,1.861079865E0,2.099584854E1
1.146132617E1,-4.091142426E0,2.427591797E1,2.801574097E0,2.477713577E1
1.147129417E1,-3.026406555E0,2.689397369E1,4.597838745E0,2.745150413E1
1.148126217E1,-2.420466614E0,2.822440704E1,5.498815155E0,2.885676315E1
1.149123017E1,-2.219734039E0,2.892854279E1,5.140160980E0,2.946538752E1
1.150119817E1,-1.581461334E0,2.974000534E1,2.827170868E0,2.991591270E1
1.151116517E1,1.878443756E0,3.340812744E1,-1.475811035E1,3.657093588E1
1.152113317E1,5.014422455E0,3.675816101E1,-2.434073318E1,4.437091531E1
1.153110117E1,-6.042933655E-1,3.095008896E1,7.304210815E0,3.180604774E1
1.154106917E1,-3.384312286E0,2.766711594E1,1.298190399E1,3.074821467E1
1.155103717E1,-4.351451111E0,2.638892395E1,8.168513489E0,2.796488953E1
1.156100517E1,-7.035369873E0,2.454835144E1,-1.632056122E0,2.558870053E1
1.157097317E1,-9.902657318E0,2.341281281E1,-1.473535767E0,2.546357660E1
1.158094017E1,-1.082818268E1,2.256856842E1,5.031786346E0,2.553250271E1
1.159090817E1,-9.855804749E0,2.126238464E1,3.365002441E0,2.367591877E1
1.160087617E1,-7.851921844E0,1.941058548E1,6.337820435E-1,2.094815469E1
1.161084417E1,-5.559439087E0,1.630738861E1,-1.250200195E0,1.727429555E1
1.162081217E1,-3.692521362E0,1.235845047E1,-3.561843109E0,1.338105894E1
1.163078017E1,-2.332898712E0,7.688312073E0,-4.021986237E0,8.984928058E0
1.164074717E1,-1.254990234E0,2.600392456E0,2.507286072E-1,2.898259175E0
1.165071517E1,7.996371460E-1,4.742138672E-1,2.315684509E0,2.495334267E0
1.166068317E1,1.719624023E0,-5.807922363E-2,1.896556091E-1,1.731025485E0
1.167065117E1,9.307644653E-1,-3.875440979E-1,8.458909607E-1,1.316071592E0
1.168061917E1,-2.414479065E-1,-1.556613007E0,3.850293274E0,4.160060028E0
1.169058717E1,-1.444047089E0,-2.867586823E0,5.107379150E0,6.032714809E0
1.170055517E1,-3.678750000E0,-4.797822876E0,2.224075012E0,6.441957433E0
1.171052217E1,-5.387596436E0,-6.881789246E0,-3.098706207E0,9.272928272E0
1.172049017E1,-4.762196960E0,-7.544461212E0,-5.313500519E0,1.038415633E1
1.173045817E1,-2.880160675E0,-6.517596588E0,-4.789440308E0,8.585635053E0
1.174042617E1,-1.372495880E0,-5.111271057E0,-3.204087067E0,6.186680103E0
1.175039417E1,-5.885760498E-1,-3.809577942E0,-1.104553070E0,4.009905653E0
1.176036217E1,-1.190025330E-1,-2.935395813E0,5.971083069E-1,2.997873999E0
1.177033017E1,9.041198730E-2,-2.522554321E0,1.115330658E0,2.759604520E0
1.178029717E1,2.621049500E-1,-2.239343262E0,1.213227081E0,2.560327557E0
1.179026517E1,4.885839844E-1,-1.909129944E0,6.517446899E-1,2.075635467E0
1.180023317E1,5.816903687E-1,-1.539099426E0,1.773811340E-1,1.654888152E0
1.181020117E1,4.972659302E-1,-1.327589264E0,-2.439926147E-1,1.438505841E0
1.182016917E1,3.200344849E-1,-1.116528168E0,-3.700305176E-1,1.219007713E0
1.183013717E1,1.727407837E-1,-6.917115784E-1,-4.614903259E-1,8.492806409E-1
1.184010417E1,2.462379456E-1,-2.365081787E-1,-3.881428528E-1,5.169372482E-1
1.185007217E1,3.263214111E-1,3.278182983E-1,-2.242337036E-1,5.140342926E-1
1.186004017E1,6.191125488E-1,9.663903809E-1,-2.993774414E-4,1.147698047E0
1.187000817E1,1.108145599E0,1.543141022E0,2.930905151E-1,1.922283260E0
1.187997617E1,1.753902740E0,2.089953918E0,6.932084656E-1,2.815070191E0
1.188994417E1,2.292931824E0,2.478695526E0,1.172212372E0,3.574290098E0
1.189991217E1,2.636168060E0,2.697839813E0,2.343676300E0,4.440781496E0
1.190987917E1,3.092119904E0,2.573747864E0,4.337080994E0,5.915712561E0
1.191984717E1,2.938838654E0,1.993105316E0,6.283782806E0,7.217698234E0
1.192981517E1,2.418370972E0,1.322499847E0,7.768545227E0,8.243046703E0
1.193978317E1,2.013013916E0,8.521778870E-1,6.635700989E0,6.986484079E0
1.194975117E1,1.722767487E0,5.212161255E-1,4.461771698E0,4.811133000E0
1.195971917E1,1.341959381E0,5.245092773E-1,2.538271637E0,2.918696261E0
1.196968617E1,1.111887817E0,5.824388123E-1,1.219663696E0,1.750173997E0
1.197965417E1,9.238787842E-1,5.713618469E-1,4.463717651E-1,1.174416502E0
1.198962217E1,8.039781189E-1,5.134323120E-1,1.559756470E-1,9.666033091E-1
1.199959017E1,7.105723572E-1,6.349795532E-1,7.858657837E-2,9.561840608E-1
1.200955817E1,8.749305725E-1,1.250948639E0,4.125421143E-1,1.581318121E0
1.201952617E1,1.216220856E0,2.277663574E0,1.944456482E-1,2.589353903E0
1.202949417E1,1.946103058E0,3.982767792E0,-1.028361511E-1,4.433997256E0
1.203946117E1,3.115920410E0,7.396119690E0,-1.220112762E0,8.117895147E0
1.204942917E1,4.733606415E0,1.762000900E1,-1.950444031E1,2.670758204E1
1.205939717E1,6.546336823E0,3.452450592E1,-4.289569794E1,5.545121222E1
1.206936517E1,3.733236694E0,4.065126526E1,7.437134399E0,4.149425733E1
1.207933317E1,-5.765111389E0,5.410019806E1,2.171549240E1,5.858012077E1
1.208930117E1,-2.901626038E1,6.288468063E1,3.100502472E1,7.587976003E1
1.209926817E1,-4.640395248E1,6.034251709E1,5.853577423E0,7.634664723E1
1.210923617E1,-2.696327957E1,4.801205841E1,-1.394604904E1,5.680377172E1
1.211920417E1,-7.056775360E0,3.512670364E1,-7.542814636E-1,3.583646645E1
1.212917217E1,-3.084635468E0,2.266421951E1,4.120331726E0,2.324132001E1
1.213914017E1,-3.083587646E-1,1.331361420E1,3.566034393E0,1.378637042E1
1.214910817E1,1.295256500E0,6.680457916E0,2.123933258E0,7.128625383E0
1.215907617E1,1.966460724E0,2.221829681E0,-3.299139404E-1,2.985353935E0
1.216904317E1,2.133513336E0,-1.595681763E-1,-1.404080200E-1,2.144074525E0
1.217901117E1,1.840123444E0,-1.787882080E0,1.974394226E-1,2.573238999E0
1.218897917E1,1.482666779E0,-1.866169281E0,1.018781433E0,2.592065618E0
1.219894717E1,1.467548218E0,-1.104553070E0,1.045875092E0,2.113667420E0
1.220891517E1,1.554667053E0,-4.221221924E-2,4.221221924E-1,1.611508195E0
1.221888317E1,1.420695648E0,1.175655212E0,-8.337661743E-2,1.845939588E0
1.222885017E1,1.148112488E0,2.277513885E0,-4.721182251E-1,2.593863412E0
1.223881879E1,8.906478882E-1,3.114124146E0,-5.776487732E-1,3.290091330E0
1.224878679E1,6.312373352E-1,3.567381592E0,-6.515950012E-1,3.680930323E0
1.225875479E1,5.451663208E-1,3.823349304E0,-5.393284607E-1,3.899497584E0
1.226872279E1,4.378395081E-1,4.281995544E0,5.719606018E-1,4.342157092E0
1.227869079E1,4.502636719E-1,4.585115204E0,2.565664673E0,5.273391131E0
1.228865879E1,6.453080750E-1,4.766088867E0,5.203928375E0,7.086105851E0
1.229862579E1,5.538482666E-1,4.811145172E0,7.348518677E0,8.800829081E0
1.230859379E1,5.614823914E-1,5.091811523E0,6.965016174E0,8.645996610E0
1.231856179E1,6.987469482E-1,5.688321075E0,4.923262024E0,7.555379071E0
1.232852979E1,8.620573425E-1,6.820716248E0,2.485431519E0,7.310450248E0
1.233849779E1,8.250842285E-1,8.311466217E0,-2.628533936E-1,8.356454186E0
1.234846579E1,4.025129700E-1,1.024394760E1,-3.382216644E0,1.079536329E1
1.235843379E1,-9.415420532E-2,1.246457977E1,-5.165009308E0,1.349266227E1
1.236840079E1,-7.887098694E-1,1.433029999E1,-4.028871918E0,1.490675585E1
1.237836879E1,-1.522633667E0,1.563109497E1,-1.432820435E0,1.577030493E1
1.238833679E1,-2.206112366E0,1.634106857E1,1.185983734E0,1.653190888E1
1.239830479E1,-2.714904327E0,1.648641632E1,2.904110870E0,1.695896484E1
1.240827279E1,-2.817141724E0,1.570623871E1,4.176914062E0,1.649450918E1
1.241824079E1,-2.494113464E0,1.355206833E1,5.035079498E0,1.467075947E1
1.242820779E1,-1.667382660E0,1.168021088E1,4.524191895E0,1.263628914E1
1.243817579E1,-8.780740356E-1,1.051413574E1,2.707270203E0,1.089253765E1
1.244814379E1,-5.453160095E-1,9.322912903E0,1.847158813E-1,9.340674199E0
1.245811179E1,-8.065228271E-1,7.831564178E0,-2.255809021E0,8.189783324E0
1.246807979E1,-1.147513733E0,6.302344208E0,-4.036506042E0,7.571638615E0
1.247804779E1,-1.570384369E0,5.035827942E0,-4.113296356E0,6.689161161E0
1.248801579E1,-1.941163330E0,4.160448303E0,-2.755769348E0,5.354597077E0
1.249798279E1,-2.349065094E0,3.625460815E0,-8.286767578E-1,4.398724600E0
1.250795079E1,-2.649640045E0,3.351380768E0,1.014739838E0,4.391132241E0
1.251791879E1,-3.145259399E0,3.178639984E0,2.127525787E0,4.952047538E0
1.252788679E1,-3.991300049E0,2.938239899E0,2.467618561E0,5.536503512E0
1.253785479E1,-4.887037354E0,2.702031097E0,1.903292084E0,5.899714137E0
1.254782279E1,-6.365512848E0,2.287842407E0,7.408094788E-1,6.804614271E0
1.255778979E1,-8.711434479E0,1.533261566E0,-4.016148376E-1,8.854449513E0
1.256775779E1,-1.122366028E1,5.659730530E-1,-1.192270660E0,1.130099044E1
1.257772579E1,-1.356793533E1,-5.635780334E-1,-3.476969604E0,1.401769621E1
1.258769379E1,-1.424303146E1,-1.774859161E0,-7.409591675E0,1.615289816E1
1.259766179E1,-1.107067841E1,-2.505789185E0,-7.895331573E0,1.382661059E1
1.260762979E1,-7.201224976E0,-2.422562256E0,-4.287534027E0,8.724069983E0
1.261759779E1,-5.994883575E0,-1.331630859E0,-6.014492798E-1,6.170381760E0
1.262756479E1,-5.469476166E0,1.502874756E0,1.964365082E0,6.002710407E0
1.263753279E1,-5.138963470E0,4.259242859E0,2.742746429E0,7.216145319E0
1.264750079E1,-5.426515503E0,6.399192810E0,1.666334839E0,8.554145832E0
1.265746879E1,-6.167175293E0,8.171357574E0,1.770817566E-1,1.023896936E1
1.266743679E1,-6.927593994E0,9.884694672E0,-7.783813477E-2,1.207082458E1
1.267740479E1,-7.895481262E0,1.179083084E1,8.622070312E-2,1.419048097E1
1.268737179E1,-8.893755341E0,1.441741882E1,-9.821076965E-1,1.696836424E1
1.269733979E1,-1.005384293E1,1.851200409E1,-2.099683685E0,2.117032651E1
1.270730779E1,-1.050006500E1,2.484293884E1,-5.412744141E-1,2.697621088E1
1.271727579E1,-8.744066620E0,3.470188705E1,3.576063538E0,3.596481470E1
1.272724379E1,-6.466702423E0,4.438989075E1,6.295757904E0,4.529809277E1
1.273721179E1,-2.837798767E0,5.015560089E1,3.786525879E0,5.037832054E1
1.274717979E1,1.790726166E0,5.077186935E1,-5.551505585E0,5.110585712E1
1.275714679E1,4.736151123E-1,4.212001099E1,-9.987979889E0,4.329063847E1
1.276711479E1,-6.743327179E0,3.049144272E1,-1.471290436E0,3.126284114E1
1.277708279E1,-8.512348480E0,2.597428619E1,1.300794983E0,2.736449684E1
1.278705079E1,-9.466763763E0,2.385604111E1,-4.408332825E-1,2.566952760E1
1.279701879E1,-9.785451050E0,2.231589386E1,2.115700378E0,2.445874811E1
1.280698679E1,-9.697733459E0,2.116793106E1,6.364465027E0,2.413780758E1
1.281695379E1,-1.003034180E1,1.998194733E1,6.382128296E0,2.325118356E1
1.282692179E1,-8.950337677E0,1.900927002E1,2.462080078E0,2.115473303E1
1.283688979E1,-7.355554047E0,1.780951492E1,-2.029779053E-1,1.926977419E1
1.284685779E1,-6.216123505E0,1.519505173E1,2.993774414E-3,1.641736268E1
1.285682579E1,-5.207071838E0,1.151360733E1,-8.262817383E-2,1.263659678E1
1.286679379E1,-4.115691376E0,7.298522644E0,-1.115480347E0,8.452907470E0
1.287676179E1,-3.345243530E0,3.082988892E0,-3.809877319E0,5.933855405E0
1.288672879E1,-3.516188049E0,-1.667981415E0,-4.374952240E0,5.855420352E0
1.289669679E1,-5.625302124E-1,-5.349874878E-1,4.920417938E0,4.981281415E0
1.290666479E1,1.259031830E0,1.008153534E0,6.850803680E0,7.038113793E0
1.291663279E1,7.520361328E-1,-1.342707825E-1,6.444099426E0,6.489222172E0
1.292660079E1,4.131408691E-2,-2.122586060E0,7.043902130E0,7.356876759E0
1.293656879E1,-6.069877625E-1,-3.886218567E0,5.702541504E0,6.927489336E0
1.294653579E1,-1.720971222E0,-5.680836639E0,1.702409821E0,6.175098871E0
1.295650379E1,-3.729494476E0,-7.636968842E0,-4.184548187E0,9.473271118E0
1.296647179E1,-4.272415466E0,-8.040829010E0,-8.788075104E0,1.265459320E1
1.297643979E1,-2.838098145E0,-7.163353729E0,-9.294621735E0,1.207304564E1
1.298640779E1,-4.562512207E-1,-4.968917084E0,-3.662134552E0,6.189469415E0
1.299637579E1,4.147874451E-1,-3.357667694E0,4.478686523E-1,3.412706741E0
1.300634379E1,4.754113770E-1,-2.549947357E0,1.389261017E0,2.942497863E0
1.301631079E1,3.941304016E-1,-2.112556915E0,1.199755096E0,2.461228918E0
1.302627879E1,3.041674805E-1,-1.774260406E0,8.475375366E-1,1.989682819E0
1.303624679E1,2.891986084E-1,-1.516646118E0,4.343966675E-1,1.603917625E0
1.304621479E1,2.779719543E-1,-1.211879883E0,7.933502197E-3,1.243376129E0
1.305618279E1,2.531236267E-1,-8.668473816E-1,-2.586621094E-1,9.393625712E-1
1.306615079E1,2.927911377E-1,-4.348457336E-1,-2.945874023E-1,6.013311899E-1
1.307611779E1,3.119512939E-1,1.315763855E-1,-1.734892273E-1,3.804266907E-1
1.308608579E1,4.917274475E-1,7.905061340E-1,-2.502795410E-1,9.640205803E-1
1.309605379E1,5.487588501E-1,1.039139099E0,-1.380130005E-1,1.183213392E0
1.310602179E1,4.692741394E-1,1.260678406E0,7.140151978E-2,1.347080709E0
1.311598979E1,5.899232483E-1,1.594484253E0,1.474433899E-1,1.706496125E0
1.312595779E1,1.006207581E0,1.950893097E0,4.123924255E-1,2.233496157E0
1.313592579E1,1.238075409E0,1.998045044E0,6.846762085E-1,2.448223075E0
1.314589279E1,1.418600006E0,1.786534882E0,1.161584473E0,2.559963154E0
1.315586079E1,1.546284485E0,1.481618958E0,1.882934418E0,2.851601737E0
1.316582879E1,1.853146362E0,1.382674713E0,2.870879974E0,3.686175882E0
1.317579679E1,2.183659058E0,1.420246582E0,3.434757385E0,4.310803351E0
1.318576479E1,2.385738831E0,1.395997009E0,3.592529297E0,4.532860484E0
1.319573279E1,2.480491791E0,1.508562927E0,3.163970490E0,4.294101872E0
1.320569979E1,2.307301941E0,1.515598297E0,2.819686432E0,3.946050179E0
1.321566779E1,1.731449432E0,1.134490814E0,2.228116608E0,3.041297447E0
1.322563579E1,1.287472687E0,9.455836487E-1,1.144669647E0,1.965192855E0
1.323560304E1,9.354048157E-1,9.788145447E-1,5.737568665E-1,1.470461500E0
1.324557104E1,5.981561279E-1,1.042581940E0,2.945874023E-1,1.237557915E0
1.325553904E1,3.854484558E-1,1.061293030E0,1.595681763E-1,1.140340041E0
1.326550704E1,2.457888794E-1,1.057251434E0,1.492396545E-1,1.095657448E0
1.327547404E1,4.787045288E-1,1.331630859E0,6.875202942E-1,1.573239628E0
1.328544204E1,7.261399841E-1,1.772015076E0,9.223818970E-1,2.125583466E0
1.329541004E1,1.055305481E0,3.018772430E0,8.443940735E-1,3.307515381E0
1.330537804E1,1.682501221E0,5.569019165E0,1.026864624E0,5.907557513E0
1.331534604E1,2.789000244E0,1.027029282E1,1.229243774E0,1.071300505E1
1.332531404E1,4.047583008E0,1.921000259E1,1.506766663E0,1.968952700E1
1.333528104E1,-1.102906494E0,3.702116409E1,-1.098460739E1,3.863217044E1
1.334524904E1,-1.316392548E1,6.190676422E1,-3.461506760E1,7.213833443E1
1.335521704E1,-1.756941422E1,7.163488449E1,2.695145416E1,7.852784139E1
1.336518504E1,-3.286251205E1,7.555208862E1,5.116959229E1,9.698654530E1
1.337515304E1,-3.893298843E1,6.005122284E1,-2.820659409E1,7.692554129E1
1.338512104E1,-1.015188904E1,4.186868362E1,-1.572599762E1,4.586234317E1
1.339508904E1,-2.424508209E0,2.868634644E1,1.296783325E1,3.157450571E1
1.340505604E1,-2.176773376E0,1.874432098E1,7.749385071E0,2.039953138E1
1.341502404E1,-1.731898499E-1,1.064825684E1,4.133654022E0,1.142376750E1
1.342499204E1,8.509803772E-1,3.062182159E0,6.298901367E-1,3.240044562E0
1.343496004E1,1.912273407E0,-2.306703186E0,6.415658569E-1,3.064192540E0
1.344492804E1,2.142344971E0,-5.006938019E0,1.966610413E0,5.790218201E0
1.345489604E1,2.734663239E0,-4.932243347E0,3.040776672E0,6.407162417E0
1.346486304E1,3.355721741E0,-3.590882721E0,2.923720093E0,5.718692709E0
1.347483104E1,3.017425232E0,-2.016307068E0,1.696721649E0,4.006146974E0
1.348479904E1,3.017425232E0,-7.616162109E-1,1.248403931E0,3.353121927E0
1.349476704E1,2.657573547E0,2.947370911E-1,9.304650879E-1,2.831136237E0
1.350473504E1,1.778601379E0,8.907975769E-1,2.462379456E-1,2.004389263E0
1.351470304E1,1.115480347E0,1.183588715E0,-2.083666992E-1,1.639693670E0
1.352467104E1,8.167016602E-1,1.497635651E0,-4.026626587E-2,1.706322219E0
1.353463804E1,7.375163269E-1,1.892065430E0,2.811154175E-1,2.050089706E0
1.354460604E1,1.009351044E0,2.315834198E0,6.084846497E-1,2.598486315E0
1.355457404E1,1.420396271E0,2.806364136E0,1.353784790E0,3.424315769E0
1.356454204E1,1.976340179E0,3.425027618E0,2.098037109E0,4.476437691E0
1.357451004E1,2.378553772E0,4.196074219E0,2.808310089E0,5.581322644E0
1.358447804E1,2.387535095E0,4.971761169E0,3.880979462E0,6.743940579E0
1.359444504E1,2.064057770E0,5.873635712E0,3.973636780E0,7.385778240E0
1.360441304E1,1.336869965E0,7.665559387E0,9.014254761E-1,7.833300065E0
1.361438104E1,4.569996643E-1,1.008542725E1,-1.976040802E0,1.028734313E1
1.362434904E1,-8.342152405E-1,1.236054611E1,-2.477498016E0,1.263396263E1
1.363431704E1,-3.489992523E0,1.459749435E1,-3.218606873E0,1.535012441E1
1.364428504E1,-8.274642792E0,1.589319992E1,-2.461930389E0,1.808658670E1
1.365425204E1,-1.346285385E1,1.642474457E1,-5.147795105E-1,2.124348526E1
1.366422004E1,-1.751926849E1,1.604872650E1,3.320095825E-1,2.376124200E1
1.367418804E1,-1.745565079E1,1.427536423E1,-5.545967102E-1,2.255644799E1
1.368415604E1,-1.193662766E1,1.121213425E1,-3.822600861E0,1.681687579E1
1.369412404E1,-5.659880219E0,8.952433319E0,-7.631430359E0,1.305446421E1
1.370409204E1,-2.145787811E0,7.001540222E0,-8.586743774E0,1.128530635E1
1.371406004E1,-1.023272095E0,5.181026001E0,-6.234086151E0,8.170308828E0
1.372402704E1,-1.062490540E0,4.057312775E0,-2.610421600E0,4.940139070E0
1.373399504E1,-1.609453125E0,3.433410187E0,8.887019348E-1,3.894667637E0
1.374396304E1,-1.582808533E0,3.278781738E0,3.327580261E0,4.932391198E0
1.375393104E1,-1.063238983E0,3.144960022E0,4.152814178E0,5.316682826E0
1.376389904E1,-9.895921326E-1,2.891686707E0,4.662354584E0,5.574826891E0
1.377386704E1,-1.486858063E0,2.700085144E0,4.956642609E0,5.836909510E0
1.378383404E1,-2.555635529E0,2.806513824E0,4.339176636E0,5.765088610E0
1.379380204E1,-4.270319824E0,2.886148224E0,2.678529968E0,5.808614789E0
1.380377004E1,-7.714357910E0,2.289189606E0,-5.011578369E-1,8.062435500E0
1.381373804E1,-1.216250793E1,1.049168243E0,-2.496957550E0,1.246042336E1
1.382370604E1,-1.535911057E1,-5.622308350E-1,-4.171225891E0,1.592537303E1
1.383367404E1,-1.512424896E1,-1.593137054E0,-4.152664490E0,1.576469520E1
1.384364204E1,-1.122815094E1,-1.255738678E0,-5.257067871E-1,1.131037669E1
1.385360904E1,-7.586972809E0,4.742138672E-1,6.554869080E-1,7.629986781E0
1.386357704E1,-5.948180695E0,2.935246124E0,-6.855743408E-2,6.633341805E0
1.387354504E1,-5.835914154E0,5.388644257E0,-1.154549103E0,8.026728136E0
1.388351304E1,-6.085295563E0,8.163573761E0,-1.713636475E0,1.032527523E1
1.389348104E1,-6.469995575E0,1.129027176E1,-3.414399719E-1,1.301720632E1
1.390344904E1,-7.292984161E0,1.489327927E1,1.212478638E0,1.662731156E1
1.391341604E1,-8.476872253E0,1.883248764E1,2.863844604E0,2.084997745E1
1.392338404E1,-9.321715393E0,2.364527939E1,4.768633575E0,2.585988170E1
1.393335204E1,-9.399254150E0,2.936608292E1,6.927444305E0,3.160225133E1
1.394332004E1,-7.886200562E0,3.469530075E1,8.096962280E0,3.648995549E1
1.395328804E1,-6.247109070E0,3.768069260E1,4.971162415E0,3.851718346E1
1.396325604E1,-4.766388245E0,3.856625107E1,-2.888543243E0,3.896688158E1
1.397322404E1,-3.626209259E0,3.906516357E1,-1.269554947E1,4.123606886E1
1.398319104E1,-5.109325104E0,3.420641739E1,-5.905968475E0,3.508653099E1
1.399315904E1,-7.015461273E0,2.689636871E1,2.947520599E0,2.795208802E1
1.400312704E1,-5.814808044E0,2.458337860E1,6.483018494E-1,2.527003742E1
1.401309504E1,-5.728437653E0,2.347553238E1,-1.162332916E0,2.419228464E1
1.402306304E1,-6.686894531E0,2.235301666E1,1.843117218E0,2.340446525E1
1.403303104E1,-8.072413330E0,2.115820129E1,5.508844299E0,2.330623746E1
1.404299804E1,-9.630822601E0,1.955114319E1,6.924899597E0,2.286819141E1
1.405296604E1,-9.515113220E0,1.817415665E1,4.783901825E0,2.106473513E1
1.406293404E1,-7.944429474E0,1.746807495E1,2.144889679E0,1.930927637E1
1.407290204E1,-6.099216614E0,1.578437622E1,7.328759766E-1,1.693765282E1
1.408287004E1,-4.733456726E0,1.250260071E1,-1.069376221E0,1.341134604E1
1.409283804E1,-3.761378174E0,7.940687256E0,-3.613186340E0,9.500399749E0
1.410280604E1,-2.803669739E0,3.168012085E0,-3.142265625E0,5.269791062E0
1.411277304E1,-2.602787476E0,-1.012943573E0,-7.210505676E-1,2.884522707E0
1.412274104E1,-2.377505951E0,-4.443809052E0,4.055815887E0,6.469127912E0
1.413270904E1,-6.017486572E-2,-2.622845764E0,5.663472748E0,6.241623545E0
1.414267704E1,8.482859802E-1,-1.290765839E0,2.415826263E0,2.867382446E0
1.415264504E1,7.783813477E-3,-1.317111053E0,-2.406096497E0,2.743017037E0
1.416261304E1,-1.810335388E0,-1.678459625E0,-4.552333374E0,5.178636894E0
1.417258004E1,-3.712130585E0,-2.735112305E0,-4.407135315E0,6.378369265E0
1.418254804E1,-4.419110413E0,-3.504961395E0,-2.533032532E0,6.183004531E0
1.419251604E1,-4.230802002E0,-3.479364624E0,-2.025288391E-1,5.481485355E0
1.420248404E1,-3.574566650E0,-3.351530457E0,5.285508728E-1,4.928453019E0
1.421245204E1,-2.336940308E0,-3.005749512E0,6.511459351E-2,3.807894436E0
1.422242004E1,-1.155596924E0,-2.315085754E0,1.249900818E-1,2.590492004E0
1.423238796E1,-4.486170959E-1,-1.578617249E0,5.364843750E-1,1.726587733E0
1.424235496E1,-1.167572021E-1,-1.257385254E0,5.556445312E-1,1.379634287E0
1.425232296E1,1.417552185E-1,-1.076261902E0,3.752696228E-1,1.148591099E0
1.426229096E1,3.999682617E-1,-9.382489014E-1,1.815724182E-1,1.035979804E0
1.427225896E1,3.357518005E-1,-5.742059326E-1,-9.415420532E-2,6.717936729E-1
1.428222696E1,3.689826965E-1,-4.790039062E-3,-3.300636292E-1,4.950890567E-1
1.429219496E1,6.578819275E-1,6.011499023E-1,-2.348616028E-1,9.216017622E-1
1.430216196E1,1.123114471E0,1.151106262E0,1.616638184E-1,1.616343693E0
1.431212996E1,1.408421173E0,1.469793549E0,4.080514526E-1,2.076162148E0
1.432209796E1,1.737137604E0,1.680555267E0,5.147795105E-1,2.471216503E0
1.433206596E1,2.217189331E0,2.171384583E0,7.836204529E-1,3.200765619E0
1.434203396E1,3.090024261E0,2.700983276E0,1.529519348E0,4.379839042E0
1.435200196E1,3.670068054E0,2.589614868E0,2.636916504E0,5.208534663E0
1.436196996E1,3.463946686E0,1.763333130E0,3.551065521E0,5.264820672E0
1.437193696E1,2.989433441E0,5.322930908E-1,4.037104797E0,5.051560489E0
1.438190496E1,2.148781586E0,-5.767506409E-1,3.329526215E0,4.004453573E0
1.439187296E1,1.408271484E0,-1.181493073E0,2.452350311E0,3.064828952E0
1.440184096E1,9.954299927E-1,-1.367855530E0,1.819017334E0,2.484096150E0
1.441180896E1,8.075706482E-1,-1.351838837E0,1.423839111E0,2.122959351E0
1.442177696E1,7.279362488E-1,-1.160686340E0,1.251996460E0,1.855957731E0
1.443174396E1,7.387138367E-1,-7.749385071E-1,1.072070618E0,1.515111623E0
1.444171196E1,7.283853149E-1,-3.237767029E-1,7.647596741E-1,1.104641969E0
1.445167996E1,6.783892822E-1,4.610412598E-2,2.679428101E-1,7.308426357E-1
1.446164796E1,5.544470215E-1,2.591111755E-1,-1.866618347E-1,6.398380588E-1
1.447161596E1,4.673281860E-1,4.089495850E-1,-4.152365112E-1,7.470319650E-1
1.448158396E1,4.096980286E-1,5.483097839E-1,-4.818479919E-1,8.370624714E-1
1.449155196E1,3.490740967E-1,6.777905273E-1,-6.225553894E-1,9.842905754E-1
1.450151896E1,1.859133911E-1,1.779349823E0,-3.704795837E0,4.114141682E0
1.451148696E1,8.068222046E-2,4.222419434E0,-9.946216736E0,1.080567272E1
1.452145496E1,1.468296661E0,6.489006042E0,-1.243479172E1,1.410273518E1
1.453142296E1,3.623215485E0,9.946965179E0,-1.000070343E1,1.456309980E1
1.454139096E1,5.399272156E0,1.407208694E1,-7.246430969E-1,1.508976071E1
1.455135896E1,6.050268402E0,2.195080307E1,2.936892700E0,2.295797992E1
1.456132596E1,2.559976501E0,3.554044327E1,3.438050537E0,3.579799965E1
1.457129396E1,-3.335663452E0,5.456258652E1,5.172044678E0,5.490858352E1
1.458126196E1,-1.828417786E1,6.776243729E1,8.683891754E0,7.072106506E1
1.459122996E1,-3.933744736E1,6.350933167E1,-1.415711014E1,7.603481926E1
1.460119796E1,-3.028921326E1,5.359035828E1,1.510194534E1,6.338321302E1
1.461116596E1,-1.066831512E1,4.490332306E1,1.752869888E1,4.936979495E1
1.462113296E1,6.850055237E0,3.348282211E1,-2.209794708E1,4.069818053E1
1.463110096E1,9.146130524E0,2.137480087E1,-9.328601074E0,2.505108009E1
1.464106896E1,1.239721985E0,1.383063904E1,5.934708710E0,1.510113420E1
1.465103696E1,-1.633103943E-1,8.294401703E0,3.549868011E0,9.023598661E0
1.466100496E1,5.298980713E-2,3.116369476E0,2.243235168E0,3.840139405E0
1.467097296E1,6.869215393E-1,-6.782395935E-1,1.451232147E0,1.742970135E0
1.468094096E1,1.732646942E0,-2.538870392E0,1.952988739E0,3.641715709E0
1.469090796E1,2.893033905E0,-2.627785492E0,2.446811829E0,4.611050845E0
1.470087596E1,3.418141937E0,-1.367107086E0,2.502196655E0,4.451254227E0
1.471084396E1,4.305197296E0,-1.945953369E-2,3.362607422E0,5.462804326E0
1.472081196E1,5.113067322E0,7.460485840E-1,4.606371002E0,6.922333403E0
1.473077996E1,2.579735413E0,1.410666504E0,3.387006683E0,4.485178821E0
1.474074796E1,9.845027161E-1,1.441352692E0,2.162852325E0,2.779329660E0
1.475071496E1,1.179547119E-1,1.090332642E0,1.045276337E0,1.515038350E0
1.476068296E1,-4.306544495E-1,7.327262878E-1,8.202941895E-2,8.538617530E-1
1.477065096E1,-7.819738770E-1,5.625302124E-1,-9.382489014E-1,1.344706059E0
1.478061896E1,-5.876779175E-1,1.396446075E0,-4.727918243E0,4.964739459E0
1.479058696E1,3.150947571E-1,3.891457672E0,-1.197090637E1,1.259147834E1
1.480055496E1,7.059320068E-1,5.655838623E0,-8.956325226E0,1.061614865E1
1.481052196E1,3.594026184E-1,6.961573334E0,-3.075953522E0,7.619328290E0
1.482048996E1,-4.498146057E-1,8.507558441E0,1.842219086E0,8.716344129E0
1.483045796E1,-1.476978607E0,1.041414368E1,5.434299316E0,1.183923407E1
1.484042596E1,-2.716999969E0,1.248119522E1,5.796995087E0,1.402738304E1
1.485039396E1,-4.840184784E0,1.442475357E1,3.275338898E0,1.556369973E1
1.486036196E1,-7.274722137E0,1.602013596E1,7.128176880E-1,1.760893090E1
1.487032996E1,-8.869954834E0,1.694027252E1,3.665876770E-1,1.912546257E1
1.488029696E1,-7.872429199E0,1.711061829E1,1.051263885E0,1.886408109E1
1.489026496E1,-6.136040039E0,1.541599228E1,1.415007477E0,1.665250886E1
1.490023296E1,-4.534370728E0,1.272144562E1,9.593550110E-1,1.353942608E1
1.491020096E1,-2.914888458E0,1.060245209E1,5.963598633E-1,1.101200300E1
1.492016896E1,-1.335822144E0,9.234297180E0,6.750961304E-2,9.330660360E0
1.493013696E1,8.247848511E-2,8.545729065E0,4.385879517E-2,8.546239614E0
1.494010396E1,1.203946381E0,8.427774353E0,4.929249573E-1,8.527593004E0
1.495007196E1,2.046993256E0,8.736881561E0,1.124012604E0,9.043599125E0
1.496003996E1,2.166145477E0,9.061107330E0,1.952689362E0,9.518868001E0
1.497000796E1,1.040935364E0,8.755592651E0,2.485281830E0,9.160817370E0
1.497997596E1,8.039781189E-1,8.616980896E0,1.992207184E0,8.880744903E0
1.498994396E1,-5.451663208E-1,8.091274109E0,1.811233521E0,8.309421754E0
1.499991096E1,-1.413061523E0,7.753576355E0,1.503174133E0,8.023354762E0
1.500987896E1,-7.105723572E-1,8.037835236E0,9.660910034E-1,8.126809963E0
1.501984696E1,-6.315367126E-1,8.386011200E0,5.831872559E-1,8.429954320E0
1.502981496E1,-9.327104187E-1,8.984167328E0,3.270698547E-1,9.038372973E0
1.503978296E1,-1.014739838E0,9.914333038E0,-4.520599365E-2,9.966229985E0
1.504975096E1,-1.119072876E0,1.093386292E1,-7.464976501E-1,1.101630342E1
1.505971896E1,-1.421893158E0,1.165536255E1,-1.408421173E0,1.182594210E1
1.506968596E1,-1.888472900E0,1.176658127E1,-1.311722260E0,1.198913591E1
1.507965396E1,-2.081870728E0,1.132140701E1,-6.556365967E-1,1.152988733E1
1.508962196E1,-1.910776520E0,1.045710434E1,-4.430786133E-2,1.063033684E1
1.509958996E1,-1.600471802E0,9.544452209E0,3.611988831E-1,9.684448492E0
1.510955796E1,-4.733157349E-1,8.058342590E0,9.430389404E-2,8.072781820E0
1.511952596E1,-2.230361938E-2,6.871610413E0,1.388662262E0,7.010557039E0
1.512949296E1,-1.534159698E0,7.989635468E0,1.341210938E0,8.245408884E0
1.513946096E1,-2.602787476E0,9.145831146E0,1.177451477E0,9.581603309E0
1.514942896E1,-2.495161285E0,9.855056305E0,1.585353241E0,1.028889253E1
1.515939696E1,-1.702559509E0,1.018961060E1,1.734892273E0,1.047552978E1
1.516936496E1,-1.071771240E0,1.047611481E1,1.606758728E0,1.065266862E1
1.517933296E1,-9.828561401E-1,1.087353836E1,9.618997192E-1,1.096015938E1
1.518930096E1,-8.388555908E-1,1.068747528E1,4.710704041E-1,1.073069028E1
1.519926796E1,-4.816983032E-1,1.022942780E1,2.436932373E-1,1.024366207E1
1.520923596E1,3.004252625E-1,1.006626709E1,-2.326162720E-1,1.007343530E1
1.521920396E1,1.459015961E0,1.010892838E1,-5.616320801E-1,1.022910510E1
1.522917196E1,1.943708038E0,9.836494904E0,-4.677772522E-1,1.003760173E1
1.523914079E1,9.626481628E-1,9.270821228E0,9.894424438E-2,9.321191324E0
1.524910879E1,-1.594184875E-1,8.977131958E0,2.874023438E-1,8.983146028E0
1.525907579E1,3.237767029E-1,8.976084137E0,3.305126953E-1,8.988000691E0
1.526904379E1,8.117619324E-1,8.832382965E0,9.732760620E-1,8.922847784E0
1.527901179E1,-9.250762939E-2,9.052126007E0,1.148561554E0,9.125170494E0
1.528897979E1,-1.293909302E0,9.720336456E0,9.201365662E-1,9.849151913E0
1.529894779E1,-1.405128021E0,1.011371841E1,9.440867615E-1,1.025441294E1
1.530891579E1,-4.848417664E-1,1.014335678E1,1.212179260E0,1.022702972E1
1.531888279E1,5.963598633E-1,9.970166931E0,1.180145874E0,1.005746578E1
1.532885079E1,1.353934479E0,9.729168091E0,7.955955505E-1,9.855091202E0
1.533881879E1,1.778152313E0,9.454040222E0,4.480183411E-1,9.630234816E0
1.534878679E1,2.054777069E0,9.217232666E0,9.340576172E-2,9.443951051E0
1.535875479E1,1.975442047E0,9.060658264E0,-1.916015625E-1,9.275484387E0
1.536872279E1,1.579216003E0,9.071136475E0,-3.233276367E-1,9.213250289E0
1.537869079E1,1.592687988E0,9.361831970E0,-2.257305908E-1,9.499026643E0
1.538865779E1,2.694097595E0,1.004680756E1,8.686436462E-1,1.043796176E1
1.539862579E1,3.582200775E0,1.036654266E1,2.384541321E0,1.122423300E1
1.540859379E1,3.701652374E0,1.013901581E1,2.233505402E0,1.102226920E1
1.541856179E1,3.273692322E0,9.736951904E0,1.249302063E0,1.034823895E1
1.542852979E1,9.487271118E-1,9.469907227E0,6.063890076E-1,9.536610176E0
1.543849779E1,-6.685098267E-1,9.684710541E0,1.419049072E-1,9.708792955E0
1.544846479E1,-5.318440247E-1,9.906998291E0,-9.864486694E-2,9.921754080E0
1.545843279E1,-1.164578247E-1,9.943372650E0,9.385482788E-2,9.944497514E0
1.546840079E1,4.872367859E-1,9.660760345E0,6.408174133E-1,9.694242471E0
1.547836879E1,-9.033714294E-1,8.687783661E0,5.303471375E-1,8.750710426E0
1.548833679E1,-1.979633331E0,8.477620697E0,3.388952637E-1,8.712281608E0
1.549830479E1,-3.342549133E-1,9.717492371E0,6.632707214E-1,9.745835642E0
1.550827179E1,1.686542816E0,1.049826874E1,6.505471802E-1,1.065275949E1
1.551823979E1,3.467838593E0,1.087264023E1,3.186872864E-1,1.141673209E1
1.552820779E1,4.240831146E0,1.103370529E1,2.011816406E-1,1.182234221E1
1.553817579E1,4.146527252E0,1.072160431E1,1.811233521E-1,1.149692537E1
1.554814379E1,3.321443024E0,1.012464569E1,5.007087708E-1,1.066729316E1
1.555811179E1,2.767295380E0,9.724378052E0,8.321195984E-1,1.014464762E1
1.556807979E1,2.543211365E0,9.544452209E0,1.041833496E0,9.932266059E0
1.557804679E1,2.334994354E0,9.546248474E0,9.404942322E-1,9.872567445E0
1.558801479E1,2.446362762E0,9.586514740E0,5.372328186E-1,9.908308369E0
1.559798279E1,3.733386383E0,9.807155914E0,-1.035396881E0,1.054469192E1
1.560795079E1,3.118465118E0,9.686057739E0,-1.125509491E0,1.023773954E1
1.561791879E1,2.139949951E0,9.293573914E0,-1.469943237E-1,9.537898574E0
1.562788679E1,1.906585236E0,9.009913788E0,7.858657837E-1,9.242899910E0
1.563785379E1,1.275796967E0,8.656498718E0,1.602118378E0,8.895471390E0
1.564782179E1,4.593946838E-1,8.618477783E0,2.373614044E0,8.951158942E0
1.565778979E1,1.079255676E-1,8.928632812E0,2.509531403E0,9.275229360E0
1.566775779E1,4.791535950E-1,9.497899017E0,2.023791504E0,9.722931963E0
1.567772579E1,9.364526367E-1,1.005054977E1,1.640438690E0,1.022651130E1
1.568769379E1,8.827143860E-1,1.045650558E1,1.087039490E0,1.054985064E1
1.569766079E1,2.104623413E-1,1.039318726E1,7.523355103E-1,1.042250663E1
1.570762879E1,3.650907898E-1,9.907297668E0,1.238075409E0,9.991029431E0
1.571759679E1,1.530567169E0,9.392218781E0,1.298399963E0,9.604283000E0
1.572756479E1,2.350711670E0,8.871900787E0,1.174158325E0,9.252843709E0
1.573753279E1,1.402283936E0,8.752449188E0,1.256038055E0,8.952619652E0
1.574750079E1,-8.562194824E-2,8.970695343E0,9.857002258E-1,9.025093406E0
1.575746879E1,-1.172811127E0,9.131461029E0,3.019221497E-1,9.211418102E0
1.576743579E1,-1.377734985E0,9.321565704E0,-5.327421570E-1,9.437878738E0
1.577740379E1,-7.033872986E-1,9.601932678E0,-1.133592682E0,9.694168207E0
1.578737179E1,2.972817993E-1,1.011895752E1,-1.076411591E0,1.018038996E1
1.579733979E1,4.993615723E-1,1.012883698E1,-4.620890808E-1,1.015166128E1
1.580730779E1,2.405497742E-1,9.468410339E0,6.150709534E-1,9.491415639E0
1.581727579E1,-1.717378693E0,6.696324921E0,1.771715698E0,7.136465059E0
1.582724279E1,-5.049000549E-1,6.301446075E0,4.278103638E-1,6.336100411E0
1.583721079E1,5.508245544E0,9.725874939E0,-5.463638306E-2,1.117749513E1
1.584717879E1,7.201524353E0,1.103999222E1,1.153501282E0,1.323155117E1
1.585714679E1,5.902375946E0,1.006282425E1,2.586471405E0,1.194940618E1
1.586711479E1,5.169050903E0,1.001447479E1,2.465971985E0,1.153645571E1
1.587708279E1,5.322032776E0,1.141151962E1,1.729653168E0,1.270978021E1
1.588704979E1,4.281097412E0,1.348770218E1,1.655856628E0,1.424737752E1
1.589701779E1,1.825753326E0,1.439017548E1,-1.172062683E-1,1.450600782E1
1.590698579E1,-9.190887451E-2,1.382959122E1,-2.951113129E0,1.414125557E1
1.591695379E1,-1.162482605E0,1.295510971E1,-3.027005310E0,1.335473678E1
1.592692179E1,-3.367996216E-1,1.241054214E1,-2.524350586E0,1.266914899E1
1.593688979E1,9.228309631E-1,1.209948898E1,-1.678459625E0,1.225016234E1
1.594685779E1,1.273551636E0,1.186208267E1,-8.376580811E-1,1.195962416E1
1.595682479E1,2.015558624E0,1.144175674E1,4.825964355E-1,1.162794794E1
1.596679279E1,2.776276703E0,1.133577713E1,1.026714935E0,1.171587381E1
1.597676079E1,2.728226624E0,1.155147858E1,7.683522034E-1,1.189412640E1
1.598672879E1,2.412682800E0,1.201027451E1,1.665436707E0,1.236290465E1
1.599669679E1,2.230212250E0,1.243224701E1,1.724264374E0,1.274785080E1
1.600666479E1,1.551074524E0,1.290002426E1,2.803669739E-1,1.299596336E1
1.601663179E1,9.496252441E-1,1.359817245E1,-4.385879517E-1,1.363834453E1
1.602659979E1,-2.451901245E-1,1.319057007E1,-4.567002869E-1,1.320075119E1
1.603656779E1,3.318598938E-1,1.258223511E1,-1.240769806E0,1.264761958E1
1.604653579E1,4.784051514E-1,1.112232101E1,-1.969454498E0,1.130546979E1
1.605650379E1,3.971241760E-1,9.709708557E0,-2.304457855E0,9.987325662E0
1.606647179E1,1.255888367E-1,9.010662231E0,-9.939331055E-1,9.066184943E0
1.607643879E1,-2.601589966E-1,9.248367920E0,7.867639160E-1,9.285418103E0
1.608640679E1,-1.725012817E0,8.763975220E0,1.799258423E0,9.111545519E0
1.609637479E1,-3.779939575E0,7.232809296E0,2.690804443E0,8.593131097E0
1.610634279E1,-4.165238342E0,7.437284088E0,3.838467865E0,9.348595649E0
1.611631079E1,-4.500990143E0,8.754694519E0,3.940854950E0,1.060348651E1
1.612627879E1,-4.636308746E0,1.001746857E1,3.013533325E0,1.144230826E1
1.613624679E1,-3.908222809E0,1.047596512E1,1.032702484E0,1.122882563E1
1.614621379E1,-3.512296143E0,1.005204666E1,-1.711690521E0,1.078469984E1
1.615618179E1,-3.282973022E0,9.342821503E0,-3.522474976E0,1.051066389E1
1.616614979E1,-7.105723572E-1,8.184530182E0,-3.733685760E0,9.023960147E0
1.617611779E1,-1.144205612E1,5.622907104E0,-1.307231598E0,1.281587247E1
1.618608579E1,-7.472161560E0,8.250692596E0,-2.134112091E0,1.133408846E1
1.619605379E1,-3.348836060E0,9.771080933E0,-2.624492340E0,1.065723630E1
1.620602079E1,-2.935096436E0,9.614057465E0,-2.360591125E0,1.032556451E1
1.621598879E1,-4.053121490E0,9.328900452E0,-8.629554749E-1,1.020788272E1
1.622595679E1,-6.645131378E0,9.320517883E0,2.734812927E-1,1.145009243E1
1.623592421E1,-6.845265198E0,9.952952728E0,1.046174469E0,1.212490844E1
1.624589221E1,-8.485554199E0,9.724976807E0,1.725910950E0,1.302146584E1
1.625586021E1,-7.330256653E0,8.907526703E0,2.666255493E0,1.184000055E1
1.626582721E1,-3.099754028E0,9.090596008E0,2.177970886E0,9.848399261E0
1.627579521E1,-3.217858429E0,8.878786469E0,-6.406677246E-2,9.444128683E0
1.628576321E1,-4.396507416E0,8.451425171E0,-7.982899475E-1,9.559975508E0
1.629573121E1,-5.360802155E0,8.754395142E0,-4.839436340E-1,1.027676192E1
1.630569921E1,-5.003644867E0,1.084749252E1,-1.993853760E-1,1.194756505E1
1.631566721E1,-3.286715240E0,1.227911545E1,4.076023865E-1,1.271791307E1
1.632563521E1,-2.962788849E0,1.089539291E1,4.553530884E0,1.217466008E1
1.633560221E1,-4.874613190E0,9.612111511E0,3.548221436E0,1.134655969E1
1.634557021E1,-4.377946014E0,9.322912903E0,1.283131714E0,1.037928433E1
1.635553821E1,-2.569406891E0,7.804320831E0,1.982028351E0,8.452083281E0
1.636550621E1,-2.781665497E0,7.203170929E0,3.427272949E0,8.448049138E0
1.637547421E1,-2.384092255E0,7.281757507E0,4.461921387E0,8.866601984E0
1.638544221E1,-1.926044769E0,7.570656738E0,5.683830414E0,9.660767054E0
1.639540921E1,-2.179018707E0,7.362589417E0,6.095923462E0,9.803883327E0
1.640537721E1,-1.885628815E0,7.216493225E0,5.476810913E0,9.253584617E0
1.641534521E1,-1.700912933E0,7.546407166E0,4.343966675E0,8.871945243E0
1.642531321E1,-2.211351471E0,8.394244080E0,3.534749451E0,9.372719065E0
1.643528121E1,-2.667003937E0,9.255253601E0,2.735711060E0,1.001282898E1
1.644524921E1,-2.413281555E0,9.832303619E0,1.487157440E0,1.023277868E1
1.645521621E1,-1.818418579E0,9.694739685E0,3.332070923E-1,9.869430108E0
1.646518421E1,-1.590891724E0,9.359736328E0,4.760101318E-2,9.494096401E0
1.647515221E1,-9.797126770E-1,9.071136475E0,8.102650452E-1,9.159797122E0
1.648512021E1,-8.029302979E-1,8.542435913E0,2.050436096E0,8.821688987E0
1.649508821E1,-8.333171082E-1,8.297545166E0,3.101699982E0,8.897427491E0
1.650505621E1,-1.173858948E0,8.242908783E0,3.908522186E0,9.197827771E0
1.651502421E1,-1.742676086E0,7.672744446E0,3.841311951E0,8.755775510E0
1.652499121E1,-2.005379791E0,7.661517792E0,3.933669891E0,8.842746281E0
1.653495921E1,-2.276316376E0,7.991282043E0,4.555776215E0,9.476143828E0
1.654492721E1,-1.642085266E0,8.381670227E0,4.308340759E0,9.566119376E0
1.655489521E1,-5.786965942E-1,9.172176361E0,3.227139130E0,9.740540843E0
1.656486321E1,-1.305285645E-1,9.882449341E0,2.877166901E0,1.029358694E1
1.657483121E1,-2.788700867E-1,9.596244507E0,1.841320953E0,9.775282094E0
1.658479821E1,-1.040336609E-1,9.672286377E0,8.499325562E-1,9.710114938E0
1.659476621E1,-1.336720276E-1,1.063882645E1,1.108744354E0,1.069728051E1
