"Time (s)","Acceleration x (m/s^2)","Acceleration y (m/s^2)","Acceleration z (m/s^2)","Absolute acceleration (m/s^2)"
2.578250133E-3,-2.761906586E0,7.627089386E0,4.579427032E0,9.315136737E0
1.254625013E-2,-3.240611115E0,6.816974030E0,3.957171021E0,8.522434969E0
2.251425013E-2,-3.511996765E0,6.293662262E0,3.630999298E0,8.070220682E0
3.248225013E-2,-3.666924591E0,6.092779999E0,3.626059570E0,7.982268605E0
4.245025013E-2,-3.612288208E0,6.177803192E0,3.810027008E0,8.107415382E0
5.241825012E-2,-3.404969330E0,6.442153473E0,4.167633362E0,8.394303148E0
6.238625012E-2,-3.175346832E0,6.598727875E0,4.611310730E0,8.653913780E0
7.235425012E-2,-2.821632385E0,6.615193634E0,4.902305603E0,8.703734621E0
8.232225012E-2,-2.538271637E0,6.637646942E0,5.300776978E0,8.865631190E0
9.229025012E-2,-2.453398132E0,6.640790405E0,6.030210114E0,9.299607175E0
1.022582501E-1,-2.474055176E0,6.636599121E0,6.920408936E0,9.902396515E0
1.122262501E-1,-2.490520935E0,6.549031219E0,7.508685608E0,1.026999825E1
1.221942501E-1,-2.500101013E0,6.421197052E0,7.586972809E0,1.024911865E1
1.321622501E-1,-2.590662689E0,6.145620117E0,7.231761475E0,9.837609152E0
1.421302501E-1,-2.828518066E0,5.771697693E0,6.637796631E0,9.239770172E0
1.520982501E-1,-3.076252899E0,5.357658691E0,6.164181519E0,8.727254571E0
1.620672499E-1,-3.200195160E0,5.004692688E0,5.844296722E0,8.333306795E0
1.720352499E-1,-3.147654419E0,4.812342682E0,5.658533020E0,8.067550209E0
1.820032499E-1,-3.034489746E0,4.826413422E0,5.542374573E0,7.951120075E0
1.919712499E-1,-3.118016052E0,5.079237671E0,5.356461182E0,8.013261247E0
2.019392499E-1,-2.989283752E0,5.293442230E0,5.327720947E0,8.083375439E0
2.119072499E-1,-2.905458069E0,5.396278381E0,5.379213867E0,8.154596789E0
2.218752499E-1,-3.089425507E0,5.309159546E0,5.409600677E0,8.185078163E0
2.318432499E-1,-3.749702454E0,4.980742493E0,5.935157776E0,8.607796588E0
2.418112499E-1,-4.487967224E0,4.537813568E0,6.899901581E0,9.399055464E0
2.517792499E-1,-4.752616882E0,4.028123474E0,7.879165192E0,1.004461996E1
2.617472499E-1,-4.500840454E0,3.457510071E0,8.462202759E0,1.018925003E1
2.717152499E-1,-4.381239166E0,2.928210754E0,8.314459991E0,9.843775688E0
2.816832503E-1,-4.653073883E0,2.587519226E0,7.333699493E0,9.062532790E0
2.916512503E-1,-4.799170074E0,2.605930939E0,5.761369171E0,7.938279674E0
3.016192503E-1,-4.710554352E0,2.989433441E0,4.654870148E0,7.265937702E0
3.115872503E-1,-4.763244781E0,3.701652374E0,5.035079498E0,7.857655929E0
3.215552503E-1,-4.524042206E0,4.234394531E0,6.690037994E0,9.118863048E0
3.315232503E-1,-4.112547913E0,3.852688293E0,9.259295197E0,1.083931755E1
3.414912503E-1,-3.376528473E0,2.298021240E0,8.103398895E0,9.074520362E0
3.514592503E-1,-2.614313507E0,1.378782806E0,8.402626648E0,8.907289808E0
3.614282501E-1,-2.585273895E0,1.525926819E0,9.705217896E0,1.015890487E1
3.713962501E-1,-2.855162659E0,1.579365692E0,1.072355026E1,1.120896427E1
3.813642501E-1,-2.431693268E0,1.478924561E0,1.054601944E1,1.092331800E1
3.913322501E-1,-1.510508881E0,1.661993866E0,1.022658371E1,1.047028534E1
4.013002501E-1,-4.525090027E-1,2.324965210E0,1.037208115E1,1.063909277E1
4.112682501E-1,3.284170532E-1,3.283272400E0,1.148830994E1,1.195278213E1
4.212362501E-1,5.918692017E-1,3.963457947E0,1.105421265E1,1.175818546E1
4.312042501E-1,7.188052368E-1,4.323010254E0,1.127245880E1,1.209435513E1
4.411722501E-1,1.597927094E0,3.947890320E0,1.392554169E1,1.456227730E1
4.511402501E-1,2.737507324E0,2.117496643E0,1.478505432E1,1.518471500E1
4.611079586E-1,2.446811829E0,1.458866272E0,8.016130371E0,8.507263076E0
4.710759586E-1,-2.574645996E-1,1.994003448E0,8.287066956E0,8.527474216E0
4.810439586E-1,-4.947661285E0,3.129542084E0,8.821306000E0,1.058720102E1
4.910119586E-1,-3.720812531E0,5.471571808E0,6.585106201E0,9.335211172E0
5.009799586E-1,-8.237370300E-1,6.494245148E0,6.463708649E0,9.199635440E0
5.109479586E-1,9.144483948E-1,6.074368286E0,6.471642151E0,8.922797659E0
5.209159586E-1,7.617658997E-1,5.681136017E0,6.524482269E0,8.684725822E0
5.308839586E-1,5.551954651E-1,5.319637756E0,7.209158478E0,8.976566928E0
5.408519586E-1,1.018781433E0,5.094805298E0,6.928641815E0,8.660313738E0
5.508209583E-1,7.526348877E-1,5.327421570E0,6.963818665E0,8.800150581E0
5.607889583E-1,7.691006470E-1,5.482648773E0,7.156168671E0,9.047745764E0
5.707569583E-1,9.970765686E-1,5.078189850E0,6.666985931E0,8.439838579E0
5.807249583E-1,9.848020935E-1,4.334835663E0,5.406756592E0,6.999546573E0
5.906929583E-1,1.110390930E0,4.035458221E0,4.414470062E0,6.083209433E0
6.006609583E-1,1.345851288E0,4.245770874E0,4.005969543E0,5.990465590E0
6.106289583E-1,1.968855743E0,4.903652802E0,3.186872864E0,6.170766758E0
6.205969583E-1,3.094365234E0,5.946983185E0,2.608475647E0,7.193458862E0
6.305649583E-1,3.720962219E0,6.414311371E0,2.725382538E0,7.900421519E0
6.405329583E-1,4.208648071E0,6.067332916E0,3.163671112E0,8.033309543E0
6.505009583E-1,4.728816376E0,4.793930969E0,3.542233887E0,7.608606926E0
6.604689583E-1,5.179678802E0,3.066223755E0,3.582051086E0,7.004419362E0
6.704369583E-1,5.865702209E0,1.428629150E0,3.824247437E0,7.146489496E0
6.804049583E-1,5.973627777E0,7.244934082E-2,4.899012451E0,7.725917468E0
6.903729583E-1,5.840554504E0,-6.406677246E-1,6.699468384E0,8.910971253E0
7.003409583E-1,6.176905060E0,-9.759704590E-2,7.407795410E0,9.645678521E0
7.103089583E-1,7.048991547E0,1.772015076E0,5.838458862E0,9.322870864E0
7.202769583E-1,8.790919189E0,3.951632538E0,1.754651184E0,9.796655587E0
7.302449583E-1,9.016649780E0,4.042643280E0,3.440744934E0,1.046334859E1
7.402129583E-1,7.961793365E0,2.619253235E0,5.624703369E0,1.009395508E1
7.501819585E-1,6.561754761E0,2.086660767E-1,4.294270020E0,7.844802233E0
7.601499585E-1,6.417903900E0,-1.484912109E-1,4.611909485E0,7.904508157E0
7.701179585E-1,7.251969452E0,2.279759216E-1,5.551655273E0,9.135858483E0
7.800859585E-1,7.875722351E0,1.541793823E-1,8.252039795E0,1.140819594E1
7.900539585E-1,8.108338623E0,-1.821711731E-1,9.594448242E0,1.256311182E1
8.000219585E-1,8.513695679E0,-3.263214111E-1,9.227112122E0,1.255902456E1
8.099899585E-1,9.078471222E0,-4.331991577E-1,7.507937164E0,1.178878372E1
8.199579585E-1,9.910291443E0,-1.429527283E-1,5.939349060E0,1.155466050E1
8.299259585E-1,1.052865555E1,1.295106812E0,4.931195526E0,1.169814424E1
8.398939585E-1,1.128533203E1,2.747237091E0,4.209546204E0,1.235420212E1
8.498619585E-1,1.135448822E1,3.159180450E0,3.486100616E0,1.229055415E1
8.598299585E-1,1.104313568E1,2.664010162E0,3.841461639E0,1.199185654E1
8.697979585E-1,1.079435303E1,2.243833923E0,4.678221588E0,1.197658571E1
8.797659585E-1,1.023751099E1,2.253563690E0,4.761747894E0,1.151344534E1
8.897339585E-1,1.000160156E1,1.908082123E0,4.526287537E0,1.114271466E1
8.997019585E-1,1.109837082E1,1.041833496E0,4.534670105E0,1.203422141E1
9.096699585E-1,1.272144562E1,8.836125183E-1,4.801116028E0,1.362595556E1
9.196379585E-1,1.386102585E1,1.847607880E0,5.877677307E0,1.516867769E1
9.296059585E-1,1.464434692E1,2.656974792E0,4.681514740E0,1.560233932E1
9.395739585E-1,1.523217453E1,2.817590790E0,5.115462341E0,1.631336611E1
9.495419585E-1,1.501647308E1,2.372266846E0,5.400918732E0,1.613356864E1
9.595109583E-1,1.429497345E1,1.901645508E0,5.058730316E0,1.528244987E1
9.694789583E-1,1.315120193E1,1.908680878E0,3.798201599E0,1.382112551E1
9.794469583E-1,1.222283249E1,1.908980255E0,2.144290924E0,1.255546985E1
9.894149583E-1,1.170026917E1,1.314865723E0,1.516945496E0,1.187123810E1
9.993829583E-1,1.156405243E1,-1.065783691E-1,2.121388550E0,1.175750641E1
1.009350958E0,1.144280457E1,-1.588047638E0,2.667453003E0,1.185643189E1
1.019318958E0,1.087488556E1,-2.354304199E0,2.512225800E0,1.140689102E1
1.029286958E0,1.040965302E1,-2.054627380E0,1.563498688E0,1.072505933E1
1.039254958E0,1.030157776E1,-9.707313538E-1,3.553610229E-1,1.035331373E1
1.049222958E0,1.024334885E1,1.679507446E-1,-3.224295044E-1,1.024979823E1
1.059190958E0,1.020547760E1,1.047671356E0,-6.560856628E-1,1.028006988E1
1.069158958E0,1.046878006E1,1.480870514E0,-8.297245789E-1,1.060550689E1
1.079126958E0,1.095152618E1,1.274749146E0,-7.274871826E-1,1.104944111E1
1.089094958E0,1.123698257E1,6.203100586E-1,-2.944377136E-1,1.125794189E1
1.099062958E0,1.096410004E1,-2.374063110E-1,5.719606018E-1,1.098157504E1
1.109030958E0,1.033016830E1,-1.053958282E0,1.745819550E0,1.052953423E1
1.118998958E0,9.977052612E0,-1.676363983E0,3.013233948E0,1.055610505E1
1.128966958E0,9.805060272E0,-1.904339905E0,4.259093170E0,1.085843414E1
1.138934958E0,9.647737427E0,-1.832788696E0,5.724545746E0,1.136698623E1
1.148902958E0,9.787097626E0,-1.719773712E0,6.326743469E0,1.178017761E1
1.158871958E0,9.990225220E0,-1.620380402E0,5.167554016E0,1.136370745E1
1.168839958E0,9.837542725E0,-1.508113861E0,3.945495300E0,1.070600707E1
1.178807958E0,9.560768280E0,-1.471440125E0,3.082988892E0,1.015274577E1
1.188775958E0,9.316176910E0,-1.423390045E0,2.257006531E0,9.690782730E0
1.198743958E0,9.080716553E0,-1.407972107E0,1.809437256E0,9.365674655E0
1.208711958E0,8.951984253E0,-1.163081360E0,1.685045929E0,9.183145436E0
1.218679958E0,9.222621460E0,-7.017407227E-1,1.946851501E0,9.451953100E0
1.228647958E0,9.611363068E0,-2.100132751E-1,2.603086853E0,9.959842707E0
1.238615958E0,9.971214752E0,2.245330811E-3,3.959416351E0,1.072856498E1
1.248583958E0,1.042462189E1,3.128494263E-1,5.201982422E0,1.165466591E1
1.258551958E0,1.125389740E1,8.831634521E-1,4.672234039E0,1.221719916E1
1.268519958E0,1.134775223E1,4.303550720E-1,4.649631042E0,1.227093130E1
1.278487958E0,1.063777863E1,-9.752220154E-1,5.690566406E0,1.210355064E1
1.288455958E0,9.747729492E0,-2.191293182E0,5.874084778E0,1.158986057E1
1.298423958E0,1.021011795E1,-2.066153412E0,4.141886902E0,1.121029552E1
1.308391958E0,1.091125992E1,-1.191522217E0,2.550995178E0,1.126866871E1
1.318359958E0,1.072504715E1,-5.240602112E-1,2.192341003E0,1.095936287E1
1.328327958E0,1.052581146E1,-1.832189941E-1,2.920576630E0,1.092501918E1
1.338295958E0,1.034139496E1,-5.239105225E-3,3.604354706E0,1.095152272E1
1.348264958E0,9.805958405E0,1.161584473E-1,3.461551666E0,1.039964677E1
1.358232958E0,9.121132507E0,3.800596619E-1,2.772235107E0,9.540691330E0
1.368200958E0,8.660989380E0,7.547305298E-1,1.943258972E0,8.908345000E0
1.378168958E0,8.690927124E0,1.285077667E0,9.054670715E-1,8.831959551E0
1.388136958E0,9.053323517E0,1.675166473E0,-1.004411316E-1,9.207547873E0
1.398104958E0,1.007689499E1,2.900967407E0,9.237290955E-1,1.052676113E1
1.408072958E0,1.110465775E1,3.878434753E0,2.793341217E0,1.208960028E1
1.418040958E0,1.017089951E1,3.517235870E0,3.255729675E0,1.124357241E1
1.428008958E0,8.690328369E0,2.481988678E0,3.275488586E0,9.613058849E0
1.437976958E0,8.279732208E0,1.678609314E0,3.130739594E0,9.009618475E0
1.447944958E0,7.488327942E0,1.409468994E0,5.668711853E-1,7.640876988E0
1.457912958E0,6.077511749E0,1.476529541E0,-1.876348114E0,6.529699135E0
1.467881083E0,5.444777527E0,1.753902740E0,-2.050286407E0,6.076631591E0
1.477849083E0,6.007607117E0,2.476150818E0,-1.441951447E0,6.655966505E0
1.487817083E0,6.612648926E0,2.574645996E0,-8.312214661E-1,7.144708318E0
1.497785083E0,7.295678558E0,2.418670349E0,2.438429260E-1,7.690016337E0
1.507753083E0,7.341632996E0,1.696721649E0,1.261875916E0,7.640076585E0
1.517721083E0,6.768774261E0,1.221459961E-1,3.075953522E0,7.435907121E0
1.527689083E0,6.008954315E0,-1.301543427E0,4.366270294E0,7.540945798E0
1.537657083E0,6.134543152E0,-1.463806000E0,4.464017029E0,7.726758423E0
1.547625083E0,7.412435760E0,-6.474037170E-1,4.342619476E0,8.615200485E0
1.557594083E0,8.834628296E0,5.053491211E-1,3.796704712E0,9.629174499E0
1.567562083E0,1.009874954E1,1.944456482E0,1.889371033E0,1.045635578E1
1.577530083E0,1.180579971E1,3.204685822E0,1.200802917E0,1.229182028E1
1.587498083E0,1.346075821E1,3.943848724E0,1.819765778E0,1.414416847E1
1.597466083E0,1.375474686E1,3.664379883E0,1.774709473E0,1.434469709E1
1.607434083E0,1.308204575E1,2.370620270E0,1.528471527E0,1.338267487E1
1.617402083E0,1.117291580E1,7.210505676E-1,1.742676086E0,1.133097001E1
1.627370083E0,7.981552277E0,-1.053958282E0,1.266067200E0,8.149781038E0
1.637338083E0,5.409301300E0,-2.235601044E0,2.083666992E-1,5.856779769E0
1.647306083E0,4.534370728E0,-3.083138580E0,-6.465055847E-1,5.521252654E0
1.657274083E0,5.790408783E0,-3.418291626E0,-2.821632385E-1,6.730019882E0
1.667242083E0,7.219037933E0,-3.314856720E0,4.306544495E-1,7.955391066E0
1.677210083E0,8.764873352E0,-3.580703888E0,2.993774414E-1,9.472806979E0
1.687178083E0,8.549471283E0,-4.701273651E0,-7.158114624E-1,9.783037320E0
1.697146083E0,7.861501923E0,-6.954837341E0,8.836125183E-1,1.053345841E1
1.707114083E0,5.269941101E0,-8.133636017E0,8.530760193E-1,9.729134224E0
1.717082083E0,2.697390747E0,-7.729476471E0,7.255412292E-1,8.218706311E0
1.727050083E0,1.285122574E1,-4.419409790E0,-2.132315826E0,1.375616068E1
1.737019083E0,1.622251511E1,1.193917236E0,-3.263064423E0,1.659044979E1
1.746987083E0,1.813044754E1,4.987328796E0,2.665956116E-1,1.880578767E1
1.756955083E0,1.818104233E1,5.060526581E0,5.433700562E-2,1.887225959E1
1.766923083E0,1.555280777E1,3.037184143E0,-2.601589966E-1,1.584872234E1
1.776891083E0,1.283835251E1,6.162684631E-1,2.208208008E0,1.304144411E1
1.786859083E0,8.999734955E0,-2.781815186E0,3.392694855E0,1.001219773E1
1.796827083E0,8.146808624E0,-4.543651428E0,2.115700378E0,9.565116160E0
1.806795083E0,1.118069962E1,-3.480861511E0,3.692072296E0,1.227826692E1
1.816763083E0,1.309791275E1,-2.791694641E0,4.220174103E0,1.404132283E1
1.826731083E0,1.092009155E1,-3.995790710E0,2.467019806E0,1.188700676E1
1.836699083E0,1.001342697E1,-4.881349182E0,3.866459656E-1,1.114655932E1
1.846667083E0,9.331295471E0,-4.675078125E0,-1.730251923E0,1.057937627E1
1.856635083E0,8.420738983E0,-4.030817871E0,-3.218307495E0,9.874909664E0
1.866603083E0,8.230185242E0,-3.663781128E0,-3.546724548E0,9.681864298E0
1.876571083E0,7.879464569E0,-4.446802826E0,-3.210523682E0,9.600389553E0
1.886539083E0,8.480315094E0,-5.169350281E0,-2.436333618E0,1.022612575E1
1.896507083E0,1.122500748E1,-4.631369019E0,-6.129753113E-1,1.215837615E1
1.906475083E0,1.239766891E1,-4.090693359E0,2.125579834E-2,1.305512997E1
1.916443083E0,1.446606766E1,-3.498075714E0,-7.170089722E-2,1.488317131E1
1.926412083E0,1.583242630E1,-2.425106964E0,-2.230361938E-2,1.601709598E1
1.936380083E0,1.528546371E1,-1.979932709E0,-4.046086121E-1,1.541847083E1
1.946348083E0,1.432895279E1,-2.368824005E0,-4.933740234E-1,1.453181452E1
1.956316083E0,1.429123123E1,-2.805915070E0,-5.510041809E-1,1.457450017E1
1.966284083E0,1.403436539E1,-3.750899963E0,-8.069718933E-1,1.454935964E1
1.976252083E0,1.361269226E1,-4.978946228E0,-7.363188171E-1,1.451335459E1
1.986220084E0,1.274210266E1,-6.850803680E0,6.996450806E-1,1.448392884E1
1.996188084E0,1.201311859E1,-9.000932465E0,2.300116882E0,1.518625501E1
2.006156084E0,1.232701584E1,-9.224417725E0,6.242019653E-2,1.539639887E1
2.016124084E0,1.151121231E1,-9.265731812E0,-1.367107086E0,1.484017441E1
2.026092084E0,1.088790848E1,-8.010442200E0,-2.888692932E0,1.382238337E1
2.036060084E0,9.582772522E0,-6.288572845E0,-3.435356140E0,1.196567380E1
2.046028084E0,6.970404968E0,-6.177054749E0,-4.637206879E0,1.040414525E1
2.055996084E0,4.764442291E0,-7.179220734E0,-5.751489716E0,1.035957309E1
2.065964084E0,5.128036194E0,-7.114106140E0,-4.384831696E0,9.804795275E0
2.075932084E0,6.872358856E0,-4.350552979E0,-7.593708801E-1,8.169043494E0
2.085900084E0,8.103249207E0,-7.435038757E-1,1.561403046E0,8.285736249E0
2.095868084E0,9.671238556E0,1.144070892E0,1.054407349E0,9.795587183E0
2.105837083E0,9.927206268E0,1.336570587E0,-3.601510620E-1,1.002325067E1
2.115805083E0,8.602461090E0,3.591032410E-1,-1.559756470E-1,8.611365765E0
2.125773083E0,7.429200897E0,4.370910645E-2,-1.219963074E-1,7.430331053E0
2.135741083E0,7.325616302E0,2.607577515E-1,-1.362167358E-1,7.331521248E0
2.145709083E0,8.324638824E0,4.326004028E-1,3.454815674E-1,8.343027759E0
2.155677083E0,1.072414902E1,9.927355957E-1,9.160949707E-1,1.080889107E1
2.165645083E0,9.989626465E0,3.640429688E-1,1.080303497E0,1.005446268E1
2.175613083E0,7.929011536E0,1.197509766E-2,2.419119415E0,8.289843550E0
2.185581083E0,6.454278259E0,-9.379495239E-1,2.691552887E0,7.055629958E0
2.195549083E0,3.299588470E0,-2.529739380E0,-1.419647827E0,4.393434347E0
2.205517083E0,1.232387238E0,-1.937570801E0,-3.340303802E0,4.053466221E0
2.215485083E0,5.836363220E-1,5.119354248E-2,-4.290827179E0,4.330640832E0
2.225453083E0,2.292183380E0,2.027833099E0,-4.634662170E0,5.553945009E0
2.235421083E0,6.397995300E0,3.582200775E0,-2.714904327E0,7.819028825E0
2.245389083E0,1.213316895E1,4.273612976E0,2.880010986E-1,1.286703156E1
2.255357083E0,1.534099823E1,3.803740082E0,2.382894745E0,1.598414379E1
2.265325083E0,1.542632080E1,2.871179352E0,2.339485016E0,1.586468514E1
2.275294084E0,1.352377716E1,1.644480286E0,8.095166016E-1,1.364742398E1
2.285262084E0,1.062310913E1,-4.445755005E-2,-4.535568237E-1,1.063288004E1
2.295230084E0,6.703060913E0,-6.982978821E-1,-3.802243195E0,7.737938928E0
2.305198084E0,4.213438110E0,-7.078779602E-1,-5.207969971E0,6.736252900E0
2.315166084E0,4.943919067E0,-7.033872986E-1,-8.054750061E-1,5.058248652E0
2.325134084E0,6.691684570E0,2.739303589E-2,2.348616028E0,7.091924281E0
2.335102084E0,8.234376526E0,1.963017883E0,9.083111572E-1,8.513719818E0
2.345070084E0,8.243657227E0,2.991229706E0,-7.152127075E-1,8.798685631E0
2.355038084E0,7.304061127E0,2.971919861E0,-8.666976929E-1,7.933018435E0
2.365006084E0,4.932692413E0,2.128274231E0,-1.269360352E0,5.520170409E0
2.374974084E0,1.482966156E0,6.840774536E-2,-1.416953430E0,2.052224467E0
2.384942084E0,-2.164049835E0,-3.676354980E0,1.603166199E-1,4.269004457E0
2.394910084E0,-4.343667297E0,-7.403304749E0,1.474284210E0,8.709183700E0
2.404878084E0,-3.010689240E0,-9.095984802E0,8.637039185E-2,9.581682997E0
2.414846084E0,-9.879455566E-2,-8.748108215E0,-2.704575806E0,9.157176858E0
2.424814084E0,5.357359314E0,-7.269932098E0,-5.732479248E0,1.069647278E1
2.434783083E0,1.014994308E1,-6.356980591E0,-6.605763245E0,1.367730437E1
2.444751083E0,1.282278488E1,-5.809419250E0,-4.824916534E0,1.488129644E1
2.454719083E0,1.409903091E1,-4.219425659E0,-2.434836731E0,1.491692514E1
2.464686959E0,1.434916077E1,-3.154689789E0,-2.599943390E0,1.492012694E1
2.474654959E0,1.515523453E1,-2.837050323E0,-4.266128540E0,1.599780738E1
2.484622959E0,1.697964066E1,-1.984722748E0,-4.986730042E0,1.780771736E1
2.494590959E0,1.815784058E1,-6.331832886E-2,-3.744463348E0,1.854001589E1
2.504558959E0,1.783720734E1,1.163680115E0,-3.250939636E0,1.816834405E1
2.514526959E0,1.739562561E1,-9.586065674E-1,-1.541793823E-1,1.742270037E1
2.524494959E0,1.832519257E1,-5.326373749E0,1.904190216E0,1.917834404E1
2.534462959E0,1.605067245E1,-8.963061218E0,2.565664673E-1,1.838549371E1
2.544430959E0,1.691093353E1,-9.188043365E0,-1.135987701E0,1.927927078E1
2.554398959E0,1.802416855E1,-7.432344360E0,-1.041384430E0,1.952421256E1
2.564366959E0,1.790666290E1,-6.301446075E0,5.287005615E-1,1.899042715E1
2.574334959E0,1.861513962E1,-4.881798248E0,2.337688751E0,1.938608176E1
2.584302959E0,1.396984955E1,-4.136797485E0,-1.416204987E0,1.463814969E1
2.594270959E0,7.407645721E0,-5.627547455E0,-7.660020905E0,1.205066080E1
2.604239958E0,3.521277466E0,-7.284751282E0,-6.290369110E0,1.024869454E1
2.614207958E0,5.799539795E0,-7.104675751E0,-3.269051971E0,9.736415159E0
2.624175958E0,1.244092896E1,-4.590803375E0,-3.770658875E0,1.378658976E1
2.634143958E0,1.925925018E1,1.359173584E-1,-5.637576599E0,2.006787136E1
2.644111958E0,2.482243149E1,4.582720184E0,-3.560944977E0,2.549185671E1
2.654079958E0,2.841900238E1,7.737110596E0,-1.608105927E0,2.949726396E1
2.664047958E0,2.754616745E1,8.171656952E0,-3.797752533E0,2.898258516E1
2.674015958E0,2.457858856E1,4.787644043E0,-1.169143753E1,2.763545300E1
2.683983958E0,2.232307892E1,-8.746311951E-1,-1.462668365E1,2.670252248E1
2.693951958E0,2.078353043E1,-4.638254700E0,-6.430178375E0,2.224445409E1
2.703919958E0,1.070439011E1,-8.660690002E0,-1.599873047E0,1.386185820E1
2.713887958E0,1.580263824E0,-1.279778687E1,-2.603535919E0,1.315518839E1
2.723855958E0,5.345234528E0,-9.431137848E0,-2.393522644E0,1.110165951E1
2.733823958E0,1.422461975E1,-2.316432953E0,-9.291178894E-1,1.444191569E1
2.743791958E0,1.293235703E1,1.851649475E0,-3.295995941E0,1.347360580E1
2.753759958E0,1.325313995E1,6.066883850E0,-4.433031464E0,1.523497838E1
2.763728959E0,1.267743713E1,7.461833038E0,-4.117188263E0,1.527571942E1
2.773696959E0,8.591234436E0,5.428162079E0,-1.942061462E0,1.034629670E1
2.783664959E0,5.692063293E0,1.998045044E0,3.432212677E0,6.940594527E0
2.793632959E0,1.654659119E0,-4.052672424E0,6.695875854E0,7.999800250E0
2.803600959E0,-4.943170624E0,-7.339986420E0,4.841082916E0,1.008694306E1
2.813568959E0,-7.948770447E0,-1.221235428E1,3.220702515E0,1.492305174E1
2.823536959E0,-7.777676239E0,-1.350581451E1,4.250411224E0,1.615441949E1
2.833504959E0,-1.017134857E1,-1.236788086E1,6.539600830E0,1.729702829E1
2.843472959E0,-6.661597137E0,-8.341703339E0,4.868026886E0,1.173279919E1
2.853440959E0,-2.605332184E0,-4.237987061E0,6.613247681E-1,5.018529721E0
2.863408959E0,1.185684357E0,-1.187181244E0,-3.671415253E0,4.036649187E0
2.873376959E0,6.394851837E0,1.397344208E0,-5.479954376E0,8.536779300E0
2.883344959E0,1.151166138E1,1.366508331E0,-4.211492157E0,1.233378931E1
2.893312959E0,1.329460373E1,-3.033441925E0,-1.305285645E0,1.369861412E1
2.903280959E0,1.371747437E1,-7.982001343E0,1.265318756E0,1.592113312E1
2.913249958E0,1.282428177E1,-1.270632706E1,5.636528778E0,1.891251984E1
2.923217958E0,9.504784698E0,-1.518936356E1,5.806425476E0,1.883539950E1
2.933185958E0,7.768994293E0,-1.279344589E1,3.470832367E0,1.536477164E1
2.943153958E0,5.680387573E0,-7.891589355E0,1.117426300E0,9.787370795E0
2.953121958E0,5.169050903E0,-2.565514984E0,-1.581910400E0,5.983593811E0
2.963089958E0,5.969137115E0,7.390132141E-1,-2.252366180E0,6.422607869E0
2.973057958E0,6.523284760E0,1.391955414E0,-2.172432404E0,7.015001531E0
2.983025958E0,7.978259125E0,-1.139131165E-1,-2.406545563E0,8.334090017E0
2.992993958E0,9.727222137E0,-2.141297150E0,-2.937940521E0,1.038438725E1
3.002961958E0,1.221085739E1,-2.401007080E0,-5.308111725E0,1.352944653E1
3.012929958E0,1.346240479E1,-1.501826935E0,-7.502099304E0,1.548461561E1
3.022897958E0,1.335477859E1,-1.091979218E0,-8.252189484E0,1.573661848E1
3.032865958E0,1.122815094E1,-4.297563171E-1,-9.892029419E0,1.497024749E1
3.042833958E0,9.155111847E0,-2.971321106E-1,-1.004860382E1,1.359701435E1
3.052801958E0,9.466763763E0,-4.973108368E0,-3.824995880E0,1.135702498E1
3.062770959E0,8.144712982E0,-1.090452393E1,2.168540497E0,1.378214640E1
3.072738959E0,6.031407623E0,-1.238030502E1,3.143163757E0,1.412548437E1
3.082706959E0,6.458020477E0,-1.134311188E1,1.197360077E0,1.310747446E1
3.092674959E0,9.876312103E0,-9.038953400E0,-2.220931549E0,1.357117372E1
3.102642959E0,1.189172104E1,-6.556365967E0,-3.401676178E0,1.399894156E1
3.112610959E0,1.220382202E1,-5.244643707E0,-3.413351898E0,1.371461012E1
3.122578959E0,1.078327606E1,-5.553750916E0,-3.741020508E0,1.269324333E1
3.132546959E0,8.976233826E0,-7.157066803E0,-3.929628296E0,1.213418137E1
3.142514959E0,7.081473999E0,-7.803572388E0,-5.897436218E0,1.207570992E1
3.152482959E0,8.213270416E0,-6.278693390E0,-9.720785522E0,1.419061214E1
3.162450959E0,4.025129700E-1,-6.596482544E0,-2.528242493E0,7.075846857E0
3.172418959E0,1.742975464E0,-5.133724365E0,6.143225098E-1,5.456233268E0
3.182386959E0,5.525609436E0,-7.298073578E0,5.974076843E-1,9.173392695E0
3.192354959E0,9.561816101E0,-8.568032684E0,8.512797546E-1,1.286717484E1
3.202323958E0,1.246008911E1,-7.170838165E0,1.684746552E0,1.447456775E1
3.212291958E0,1.392614044E1,-4.598138123E0,1.224304047E0,1.471662944E1
3.222259958E0,1.323248291E1,-3.572321320E0,-3.260220337E-1,1.371008293E1
3.232227958E0,1.157707535E1,-4.034260712E0,-1.308279419E0,1.232945774E1
3.242195958E0,1.089329727E1,-5.057981873E0,-1.411864014E0,1.209299244E1
3.252163958E0,9.339827728E0,-6.730004883E0,-1.465003510E0,1.160480862E1
3.262131958E0,6.981032867E0,-7.579937439E0,-2.368374939E0,1.057352691E1
3.272099958E0,6.885980530E0,-6.345604248E0,-2.324366455E0,9.648113834E0
3.282067958E0,9.513167267E0,-4.392914886E0,-2.514920197E0,1.077603249E1
3.292035958E0,1.323981766E1,-2.819686432E0,-1.457070007E0,1.361493504E1
3.302003958E0,1.616263962E1,-2.392025757E0,-1.090781708E0,1.637505760E1
3.311971958E0,1.680555267E1,-2.378703461E0,-8.666976929E-1,1.699517566E1
3.321939958E0,1.656021286E1,-2.329306183E0,-3.014730835E-1,1.672594402E1
3.331907958E0,1.565235077E1,-2.662662964E0,1.415606232E0,1.594019447E1
3.341876958E0,1.407463165E1,-3.429667969E0,1.052611084E0,1.452466415E1
3.351844958E0,1.278895523E1,-3.457809448E0,-2.235750732E0,1.343549044E1
3.361812958E0,1.226399689E1,-2.693498840E0,-2.396965485E0,1.278303560E1
3.371780958E0,9.800419922E0,-3.205733643E0,-2.249372406E0,1.055389194E1
3.381748958E0,5.191953278E0,-6.315217438E0,-3.729494476E0,8.985960114E0
3.391716958E0,1.093476105E1,-5.601501617E0,-3.762725372E0,1.284927709E1
3.401684958E0,1.227043350E1,-5.554948425E0,-3.047362976E0,1.380968542E1
3.411652958E0,8.983269196E0,-7.067852325E0,-2.605182495E0,1.172350791E1
3.421620958E0,7.909552002E0,-7.867788849E0,-8.789721680E-1,1.119087603E1
3.431588958E0,7.315886536E0,-7.388635254E0,9.443861389E-1,1.044059346E1
3.441556958E0,6.447093201E0,-6.951244812E0,4.838687897E0,1.064413997E1
3.451524958E0,4.349804535E0,-7.642657013E0,6.594835968E0,1.099194556E1
3.461492958E0,2.778222656E-1,-8.098159790E0,2.032174072E0,8.353867886E0
3.471461459E0,-1.975142670E0,-6.542744293E0,-3.772904205E0,7.806631642E0
3.481430458E0,-6.927593994E-1,-3.681893463E0,-7.762407990E0,8.619236211E0
3.491398458E0,-2.668650513E0,-3.682492218E0,-9.935289459E0,1.092668390E1
3.501366458E0,-2.399510193E0,-4.823120270E0,-7.413633270E0,9.164174626E0
3.511334458E0,-4.459226990E-1,-6.128256226E0,-3.720812531E0,7.183231676E0
3.521302458E0,3.479514313E0,-7.288343811E0,1.728904724E-1,8.078172224E0
3.531270458E0,9.718540192E0,-7.425608368E0,4.739444275E0,1.311685996E1
3.541238458E0,1.494686783E1,-7.279661865E0,4.804409180E0,1.730562574E1
3.551206458E0,1.558139832E1,-6.395450592E0,2.571652222E0,1.703805027E1
3.561174458E0,1.401535492E1,-4.909790039E0,5.081932068E-1,1.485915449E1
3.571142458E0,1.165685944E1,-4.808450775E0,-1.680106201E0,1.272109774E1
3.581110458E0,8.228987732E0,-5.100792847E0,-3.428470459E0,1.027077098E1
3.591078458E0,5.121599579E0,-5.379662933E0,-5.135820007E0,9.030404347E0
3.601047459E0,2.981649628E0,-4.286635895E0,-5.426365814E0,7.530665824E0
3.611015459E0,1.678160248E0,-3.577710114E0,-5.532794495E0,6.799121002E0
3.620983459E0,9.180409241E-1,-3.135829010E0,-5.872138824E0,6.719987879E0
3.630951459E0,5.517526245E-1,-2.619552612E0,-5.416186981E0,6.041652776E0
3.640919459E0,3.643124084E0,-3.561992798E0,-3.548371124E0,6.208951878E0
3.650887459E0,8.102201385E0,-4.922064514E0,-1.652563477E0,9.623063567E0
3.660855459E0,1.113504456E1,-4.058809662E0,-1.019679565E0,1.189549913E1
3.670823459E0,1.285451889E1,-2.525248718E0,-9.107061768E-1,1.313182861E1
3.680791459E0,1.140538239E1,-3.473826141E0,-2.589614868E0,1.220066886E1
3.690759459E0,7.591912537E0,-6.311026154E0,-7.245981903E0,1.224624191E1
3.700727459E0,4.568649445E0,-8.546926575E0,-1.067385361E1,1.441713087E1
3.710695459E0,3.304977264E0,-6.970404968E0,-6.121969299E0,9.848244932E0
3.720663459E0,7.200177155E0,-5.799988861E0,-2.674937439E0,9.624848682E0
3.730632458E0,1.122785156E1,-8.478369141E0,6.837780762E-1,1.408598404E1
3.740600458E0,1.251891678E1,-9.500593414E0,4.652924194E0,1.639006577E1
3.750568458E0,1.279718811E1,-8.372090149E0,4.791535950E0,1.602556501E1
3.760536458E0,1.362825989E1,-7.001989288E0,4.737797699E0,1.603758238E1
3.770504458E0,1.389051453E1,-6.109694824E0,4.812342682E0,1.591959192E1
3.780472458E0,1.189860672E1,-6.506519623E0,-1.963916016E-1,1.356282453E1
3.790440458E0,7.853418732E0,-7.088659058E0,-4.671485596E0,1.156494923E1
3.800408458E0,6.755751343E0,-6.087690582E0,-5.905220032E0,1.084305199E1
3.810376458E0,9.779613190E0,-5.130431213E0,-5.328918457E0,1.226211770E1
3.820344458E0,1.024649231E1,-6.037844238E0,-3.131038971E0,1.229835651E1
3.830312458E0,9.660161591E0,-4.977149963E0,9.598040771E-1,1.090926063E1
3.840280458E0,1.189935516E1,-4.203858032E0,3.554807739E0,1.311120642E1
3.850249459E0,1.347452957E1,-4.201912079E0,3.113226013E0,1.445376036E1
3.860217459E0,1.378019394E1,-4.206702118E0,3.301384735E0,1.478138116E1
3.870185459E0,1.326616287E1,-4.505929871E0,2.246528320E0,1.418948099E1
3.880153459E0,1.272294250E1,-4.146826630E0,1.294957123E0,1.344419395E1
3.890121459E0,1.414887726E1,-3.675456848E0,-4.125421143E-1,1.462429149E1
3.900089459E0,1.615440674E1,-3.697161713E0,-1.703307953E0,1.665938534E1
3.910057459E0,1.474029739E1,-4.806355133E0,-7.701484680E-1,1.552322600E1
3.920025459E0,1.286993683E1,-5.712870026E0,1.269809418E0,1.413805410E1
3.929993459E0,1.197569641E1,-6.965914307E0,3.234623566E0,1.422687795E1
3.939961459E0,1.281709671E1,-7.287295990E0,5.176086273E0,1.562608460E1
3.949929459E0,1.301079391E1,-7.611072693E0,3.595074005E0,1.549624932E1
3.959897459E0,1.139804764E1,-7.768245850E0,-3.722758484E-1,1.379854061E1
3.969866458E0,1.042522064E1,-6.073619843E0,-2.217638397E0,1.226751823E1
3.979834458E0,8.684041443E0,-4.446802826E0,-4.661157074E0,1.081263226E1
3.989802458E0,7.939639435E0,-4.084256744E0,-6.875352631E0,1.126896186E1
3.999770458E0,8.192014618E0,-4.687352600E0,-8.675509186E0,1.281970505E1
4.009738458E0,8.199948120E0,-5.103187866E0,-8.608897705E0,1.293811405E1
4.019706458E0,7.193141785E0,-5.442831573E0,-6.018085327E0,1.084357207E1
4.029674458E0,7.841144257E0,-3.395239563E0,-4.155358887E-1,8.554756865E0
4.039642458E0,1.088371719E1,-1.665137329E0,7.962541809E0,1.358786423E1
4.049610458E0,9.692943420E0,-3.974085846E0,1.082279388E1,1.506251566E1
4.059578458E0,5.851930847E0,-6.206543427E0,7.301666107E0,1.122856197E1
4.069546458E0,4.834646301E0,-6.115682373E0,5.610932007E0,9.605099361E0
4.079514458E0,6.046825562E0,-5.098697205E0,4.172273712E0,8.942520924E0
4.089483459E0,6.880142670E0,-3.542233887E0,-2.665956116E-1,7.743052194E0
4.099451459E0,9.717342682E0,-2.008373566E0,-4.282743988E0,1.080750708E1
4.109419459E0,1.212763046E1,-1.265019379E0,-5.979765015E0,1.358076891E1
4.119387459E0,1.165835632E1,-9.000782776E-1,-4.934039612E0,1.269142072E1
4.129355459E0,9.198820953E0,-1.730850677E0,-6.161187744E-1,9.380498566E0
4.139323459E0,7.557484131E0,-4.207450562E0,4.211043091E0,9.620347734E0
4.149291459E0,7.759114838E0,-5.288203125E0,6.577472076E0,1.146438373E1
4.159259459E0,8.704848175E0,-4.002676392E0,6.650220795E0,1.166281427E1
4.169227459E0,9.857451324E0,-2.765050049E0,5.223537598E0,1.149348482E1
4.179195459E0,1.135089569E1,-1.503922577E0,2.394720154E0,1.169783316E1
4.189163459E0,1.196491882E1,-1.957928467E-1,-7.984396362E-1,1.199312816E1
4.199132458E0,1.104672821E1,7.424560547E-2,-1.766326904E0,1.118729759E1
4.209100458E0,9.982740784E0,6.780899048E-2,-1.425934753E0,1.008429480E1
4.219068458E0,9.663903809E0,-1.008153534E0,-7.939489746E-1,9.748731474E0
4.229036458E0,9.609417114E0,-3.037782898E0,-8.584648132E-1,1.011464206E1
4.239004458E0,7.997269592E0,-3.144960022E0,-1.265169067E0,8.686066270E0
4.248972458E0,3.516038361E0,-3.508853302E0,-3.939058685E0,6.339618330E0
4.258940458E0,-5.074447632E-1,-3.639830933E0,-6.527326355E0,7.490784922E0
4.268908458E0,-3.101849670E0,-3.401227112E0,-7.285350037E0,8.617780596E0
4.278876458E0,-4.008214874E0,-3.389401703E0,-4.919220428E0,7.193925215E0
4.288844458E0,-3.972439270E0,-5.459746399E0,-1.991608429E0,7.039574464E0
4.298812458E0,-4.375700684E0,-6.882388000E0,-2.036215668E0,8.405961891E0
4.308781459E0,-5.267396393E0,-6.211932220E0,-2.297123108E0,8.462289362E0
4.318749459E0,-4.876559143E0,-4.689448242E0,-2.526446228E0,7.221820022E0
4.328717459E0,-5.349874878E0,-4.770579529E0,-1.947599945E0,7.427835203E0
4.338685459E0,-3.558849335E0,-8.082292786E0,-2.110461273E0,9.079807930E0
4.348653459E0,5.405259705E-1,-7.109166412E0,-1.047371979E0,7.206205899E0
4.358621459E0,9.471553802E0,-3.837719421E0,3.391796722E0,1.076766952E1
4.368589459E0,1.615919678E1,-1.626068573E0,4.728516998E0,1.691515925E1
4.378557459E0,1.696392334E1,-1.623374176E0,3.480412445E0,1.739319722E1
4.388525459E0,2.469654327E1,-5.766009521E0,2.787503357E0,2.551345313E1
4.398493459E0,3.231525009E1,-6.928791504E0,-8.884025574E-1,3.306165149E1
4.408461459E0,3.096715347E1,-6.826254730E0,-2.538121948E0,3.181201677E1
4.418429459E0,2.347538269E1,-5.099445648E0,-8.711883545E-1,2.403865445E1
4.428398458E0,1.643088181E1,-3.365002441E0,4.255051575E0,1.730325352E1
4.438366458E0,1.468925354E1,-3.451971588E0,4.886737976E0,1.586097366E1
4.448334458E0,1.401730087E1,-4.100123749E0,-8.428971863E-1,1.462895123E1
4.458302458E0,1.298160461E1,-3.721860352E0,-3.324137421E0,1.390770263E1
4.468269583E0,1.209275299E1,-3.053051147E0,-2.743644562E0,1.277041040E1
4.478237583E0,1.000309845E1,-3.049907684E0,4.120930481E-1,1.046583662E1
4.488205583E0,5.377267914E0,-4.029171295E0,3.465144196E0,7.560188876E0
4.498173583E0,2.936144257E0,-6.348448334E0,4.886288910E0,8.532265740E0
4.508141583E0,1.602717133E0,-6.399941254E0,5.958808594E0,8.890182794E0
4.518109583E0,2.738704834E0,-3.938759308E0,4.284240875E0,6.431877559E0
4.528077583E0,5.649551697E0,-3.685336304E0,-1.871408386E0,7.000093385E0
4.538046584E0,7.945327606E0,-4.501439209E0,-6.202202454E0,1.103895380E1
4.548014584E0,1.044108765E1,-3.567830658E0,-6.529871063E0,1.282126916E1
4.557982584E0,1.333367249E1,-7.518864441E-1,-5.530998230E0,1.445489871E1
4.567950584E0,1.441562256E1,2.544708252E-1,-3.637585602E0,1.486966570E1
4.577918584E0,1.396476013E1,-1.450034637E0,7.297325134E-1,1.405879211E1
4.587886584E0,1.243748611E1,-4.300107880E0,3.584595795E0,1.363932974E1
4.597854584E0,1.222582626E1,-6.312672729E0,2.862347717E0,1.405395671E1
4.607822584E0,1.413794998E1,-7.018155670E0,9.557624817E-1,1.581295736E1
4.617790584E0,1.352497467E1,-6.134243774E0,-3.212319946E-1,1.485453050E1
4.627758584E0,1.195788345E1,-4.319866791E0,1.047821045E-3,1.271425290E1
4.637727583E0,1.192255692E1,-4.095034332E0,1.096320190E0,1.265379736E1
4.647695583E0,1.052715866E1,-5.500162354E0,1.053808594E0,1.192406675E1
4.657663583E0,1.214379684E1,-6.187982025E0,9.220825195E-1,1.366064272E1
4.667631583E0,1.341405533E1,-5.983656921E0,3.229833527E0,1.503904436E1
4.677599583E0,1.280826508E1,-5.655838623E0,4.561614075E0,1.472577630E1
4.687567583E0,1.322365128E1,-5.691165161E0,3.297941895E0,1.476924963E1
4.697535583E0,1.476080475E1,-5.904022522E0,4.228706360E-1,1.590338512E1
4.707503583E0,1.579650101E1,-6.602320404E0,1.058299255E-1,1.712107703E1
4.717471583E0,1.710118790E1,-5.827082520E0,1.066681824E0,1.809815815E1
4.727439583E0,1.807805649E1,-4.906646576E0,-6.159690857E-1,1.874221772E1
4.737407583E0,1.764770142E1,-3.996090088E0,-1.874402161E0,1.819130245E1
4.747376584E0,1.655482407E1,-3.278931427E0,-2.468965759E0,1.705606587E1
4.757344584E0,1.486199432E1,-4.071682892E0,-3.763773193E0,1.586264371E1
4.767312584E0,1.185265228E1,-5.300477600E0,-5.563630371E0,1.412566500E1
4.777280584E0,1.183633621E1,-6.329886932E0,-5.360353088E0,1.445336323E1
4.787248584E0,1.520478149E1,-7.288194122E0,-1.644031219E0,1.694125121E1
4.797216584E0,1.404843613E1,-6.188281403E0,-3.155138855E0,1.567189476E1
4.807184584E0,9.205706635E0,-5.957162018E0,-5.113516388E0,1.209879596E1
4.817152584E0,1.873204651E0,-6.706803131E0,-2.522853699E0,7.406409028E0
4.827120584E0,2.545307007E0,-4.438869324E0,-4.427343292E0,6.766351843E0
4.837088584E0,7.043003998E0,-2.482587433E0,-1.761836243E0,7.672757824E0
4.847057583E0,8.484057312E0,-1.083297272E0,8.988807678E-1,8.600043493E0
4.857025583E0,1.039917480E1,1.272952881E0,-3.820056152E-1,1.048375763E1
4.866993583E0,1.347333206E1,5.574407959E0,-3.640429688E-1,1.458551433E1
4.876961583E0,1.272428970E1,4.058959351E0,-1.481469269E0,1.343791095E1
4.886929583E0,1.010069550E1,1.982178040E0,-5.707930298E0,1.177002751E1
4.896897583E0,8.754395142E0,8.764274597E-1,-5.361400909E0,1.030301796E1
4.906865583E0,5.740412750E0,-7.432044983E-1,-1.690584412E0,6.030154817E0
4.916833583E0,9.822573853E-1,-5.187911682E0,2.085014191E0,5.676842553E0
4.926801583E0,-9.253756714E-1,-7.490722961E0,6.270909576E0,9.812826175E0
4.936769583E0,-1.515298920E0,-7.176526337E0,8.150700531E0,1.096506180E1
4.946737583E0,-3.284320221E0,-5.826932831E0,6.840026093E0,9.566914993E0
4.956706583E0,-6.094875641E0,-4.085005188E0,5.324577484E0,9.065644039E0
4.966674583E0,-7.053931274E0,-4.882097626E0,2.729573822E0,9.002410616E0
4.976642583E0,-6.686146088E0,-6.107748871E0,3.758683777E-1,9.063687043E0
4.986610583E0,-5.173092499E0,-5.841452637E0,-1.299148407E0,7.910198575E0
4.996578583E0,-3.607797546E0,-5.307063904E0,-1.578766937E0,6.608603140E0
5.006546583E0,-2.571951599E0,-5.342091064E0,-6.221063232E-1,5.961534051E0
5.016514583E0,-6.661148071E-2,-5.107079773E0,6.391708374E-2,5.107914084E0
5.026482583E0,1.926194458E0,-5.220693512E0,5.078938293E-1,5.587828020E0
5.036450583E0,1.816173248E0,-6.463708649E0,3.712280273E-1,6.724271337E0
5.046419583E0,2.838846588E0,-8.371790771E0,9.611512756E-1,8.892116871E0
5.056387583E0,7.649393005E0,-9.643845520E0,-8.786727905E-1,1.234054438E1
5.066355583E0,1.115689911E1,-7.899073792E0,-3.058439941E0,1.400806266E1
5.076323583E0,1.157123749E1,-5.325176239E0,-1.776805115E0,1.286110708E1
5.086291583E0,1.521915161E1,-3.764521637E0,-4.846920776E-1,1.568531560E1
5.096259583E0,2.168360870E1,-3.099155273E0,-2.189496918E0,2.201312215E1
5.106227583E0,2.462304611E1,-5.203778687E0,-5.278173981E0,2.571444794E1
5.116195583E0,2.575469284E1,-6.410419464E0,-4.859195251E0,2.698165042E1
5.126163583E0,2.620869873E1,-5.035229187E0,-1.480571136E0,2.672903876E1
5.136131583E0,2.515938080E1,-2.893183594E0,2.052681427E0,2.540823596E1
5.146099583E0,2.221754837E1,-1.587897949E0,2.825823669E0,2.245275384E1
5.156068583E0,1.926658493E1,-1.130898285E0,1.486109619E0,1.935687856E1
5.166036583E0,1.667352722E1,-1.225351868E0,-3.045117645E0,1.699354991E1
5.176004583E0,1.322050781E1,-2.188299408E0,-3.520978088E0,1.385524333E1
5.185972583E0,1.267638931E1,-1.836231537E0,-6.900650024E-1,1.282726713E1
5.195940583E0,1.226699066E1,-7.587721252E-1,9.345066833E-1,1.232591164E1
5.205908583E0,1.233060837E1,6.463558960E-1,-2.228865051E-1,1.234954886E1
5.215876583E0,1.160222305E1,1.030457153E0,-9.794132996E-1,1.168899791E1
5.225844583E0,1.105960144E1,9.102571106E-1,-4.605921936E-1,1.110655199E1
5.235812583E0,1.067100952E1,8.535250854E-1,4.785548401E-1,1.071578107E1
5.245780583E0,1.013407608E1,8.298742676E-1,6.227050781E-1,1.018704819E1
5.255749583E0,9.334888000E0,1.028511200E0,4.131408691E-2,9.391468262E0
5.265717583E0,8.502019958E0,1.006357269E0,-7.104226685E-1,8.590797326E0
5.275685583E0,7.627688141E0,1.856439514E0,-1.436263275E0,7.980654499E0
5.285653583E0,6.697821808E0,2.968626709E0,-2.460583191E0,7.728391239E0
5.295621583E0,7.320227509E0,3.474724274E0,-3.641178131E0,8.883558844E0
5.305589583E0,8.754544830E0,4.127067719E0,-3.709885254E0,1.036522994E1
5.315557583E0,9.433083801E0,4.486620026E0,-2.998414764E0,1.086753516E1
5.325525583E0,9.198820953E0,4.543202362E0,-1.982776794E0,1.044942096E1
5.335493583E0,8.504714355E0,4.490511932E0,-1.442250824E0,9.724965353E0
5.345462583E0,7.502548370E0,4.599036255E0,-2.542462921E0,9.159884510E0
5.355430583E0,7.578590240E0,3.516936493E0,-3.863166504E0,9.204777442E0
5.365398583E0,8.374335480E0,1.541494446E0,-5.043611755E0,9.896651928E0
5.375366583E0,8.689430237E0,-1.349892883E0,-8.935069427E0,1.253650168E1
5.385334583E0,1.046354095E1,-3.382216644E0,-1.282218613E1,1.689181861E1
5.395302583E0,1.117007172E1,2.044747925E-1,-2.923720093E0,1.154817957E1
5.405270583E0,1.037028488E1,5.282514954E-1,9.557624817E-1,1.042762389E1
5.415238583E0,9.454638977E0,-1.827699280E-1,2.047741699E0,9.675580039E0
5.425206583E0,8.968000946E0,-2.819686432E0,2.616558838E-1,9.404474273E0
5.435174583E0,8.667875061E0,-2.011067963E0,1.543141022E0,9.030932213E0
5.445143583E0,9.194030914E0,-2.735561371E0,5.056484985E-1,9.605684821E0
5.455111583E0,9.309291229E0,-1.496288452E0,1.615590363E0,9.566185998E0
5.465079583E0,8.492439880E0,-6.947053528E-1,2.832709351E0,8.979331429E0
5.475047708E0,8.490493927E0,-1.254092102E0,2.511627045E0,8.942566999E0
5.485015708E0,8.747659149E0,-2.020648041E0,2.082020416E0,9.216255645E0
5.494983708E0,9.059311066E0,-2.931803284E0,1.357826385E0,9.618226446E0
5.504951708E0,9.455387421E0,-3.609144745E0,8.936416626E-2,1.012117893E1
5.514919708E0,1.005863297E1,-4.155358887E0,-4.941224670E-1,1.089436834E1
5.524887708E0,1.075693085E1,-4.493655396E0,-8.071215820E-1,1.168571544E1
5.534855708E0,1.118713623E1,-4.597539368E0,-8.622070313E-1,1.212570766E1
5.544824708E0,1.139999359E1,-4.693190460E0,-8.099656677E-1,1.235483448E1
5.554792708E0,1.111573471E1,-4.627028046E0,-1.008003845E0,1.208242602E1
5.564760708E0,1.021999741E1,-4.406237183E0,-9.126521301E-1,1.116674559E1
5.574728708E0,9.492360535E0,-3.875440979E0,-6.812333679E-1,1.027560364E1
5.584696708E0,8.934021606E0,-3.144510956E0,-5.837860107E-2,9.471435967E0
5.594664708E0,8.635392609E0,-2.437231750E0,8.418493652E-1,9.012148160E0
5.604632708E0,8.734785919E0,-1.770218811E0,1.683848419E0,9.070033362E0
5.614600708E0,8.526119843E0,-1.563648376E0,2.222129059E0,8.948607342E0
5.624568708E0,7.886050873E0,-2.010918274E0,2.536475372E0,8.524511598E0
5.634536708E0,9.158255310E0,-8.750802612E-1,3.516786804E0,9.849223077E0
5.644505708E0,1.053389465E1,3.263214111E-2,4.177812195E0,1.133217173E1
5.654473708E0,1.099658249E1,4.161346436E-2,4.663552094E0,1.194467564E1
5.664441708E0,1.129640900E1,3.049159241E-1,4.948709106E0,1.233659401E1
5.674409708E0,1.113085327E1,6.840774536E-1,4.923411713E0,1.219031744E1
5.684377708E0,1.037267990E1,1.088536377E0,4.674030304E0,1.142908391E1
5.694345708E0,9.203610992E0,1.353485413E0,4.361480255E0,1.027428285E1
5.704313708E0,8.096513214E0,1.441951447E0,4.200714569E0,9.234649592E0
5.714281708E0,7.192992096E0,1.418749695E0,4.120930481E0,8.410353977E0
5.724249708E0,6.403683472E0,1.387764130E0,4.094734955E0,7.726571402E0
5.734218708E0,5.874384155E0,1.431772614E0,4.239184570E0,7.384378636E0
5.744186708E0,5.645959167E0,1.542542267E0,4.405937805E0,7.325884213E0
5.754154708E0,5.630391541E0,1.648821259E0,4.617897034E0,7.466250294E0
5.764122708E0,5.683830414E0,1.773511963E0,4.734504547E0,7.607023476E0
5.774090708E0,5.644312592E0,1.875449982E0,4.703219604E0,7.582601922E0
5.784058708E0,5.482050018E0,1.950444031E0,4.733606415E0,7.500942208E0
5.794026708E0,5.242997131E0,1.982776794E0,4.904101868E0,7.447861295E0
5.803994708E0,5.055886230E0,1.970352631E0,5.179080048E0,7.501142927E0
5.813962708E0,4.949607239E0,1.990410919E0,5.550158386E0,7.698350834E0
5.823931708E0,4.827012177E0,1.939217377E0,5.900130615E0,7.865885320E0
5.833899708E0,4.717440033E0,1.703906708E0,6.236181793E0,8.002968318E0
5.843867708E0,4.639152832E0,1.414109344E0,6.438111877E0,8.060442220E0
5.853835708E0,4.638404388E0,1.219214630E0,6.380631409E0,7.982088496E0
5.863803708E0,4.678071899E0,1.093775482E0,6.208489380E0,7.850225594E0
5.873771708E0,4.404141541E0,8.173004150E-1,6.321055298E0,7.747269374E0
5.883739708E0,3.984863434E0,4.905299377E-1,6.491700439E0,7.632950334E0
5.893707708E0,3.432512054E0,2.899470520E-1,6.536008301E0,7.388207686E0
5.903675708E0,2.549198914E0,1.279838562E-1,6.533313904E0,7.014198852E0
5.913643708E0,1.456022186E0,-3.761677551E-1,6.371949463E0,6.547002577E0
5.923612708E0,7.228468323E-1,-1.040037231E0,6.125861206E0,6.255426484E0
5.933580708E0,3.197351074E-1,-1.612596588E0,5.830225983E0,6.057576521E0
5.943548708E0,2.261796570E-1,-2.126477966E0,5.536686401E0,5.935314826E0
5.953516708E0,7.665559387E-1,-2.515818329E0,5.592220917E0,6.179796490E0
5.963484708E0,1.614692230E0,-2.717898102E0,5.784121857E0,6.591681632E0
5.973452708E0,2.425406342E0,-2.585872650E0,5.555996246E0,6.590783533E0
5.983420708E0,3.742816772E0,-2.683619385E0,5.325325928E0,7.040567209E0
5.993388708E0,4.840334473E0,-2.872077484E0,5.366041260E0,7.776378700E0
6.003356708E0,6.261329498E0,-2.522105255E0,5.334456940E0,8.603586046E0
6.013325708E0,8.350984039E0,-1.576222229E0,5.519172821E0,1.013334493E1
6.023293708E0,1.115480347E1,-4.848417664E-1,5.899232483E0,1.262797117E1
6.033261708E0,1.439421707E1,4.131408691E-2,6.711742859E0,1.588214986E1
6.043229708E0,1.524908936E1,-3.248245239E-1,8.806486816E0,1.761233793E1
6.053197708E0,1.762928970E1,1.144070892E0,9.970915375E0,2.028595344E1
6.063165708E0,2.229433868E1,5.409750366E0,9.880054321E0,2.497835883E1
6.073133708E0,2.451048019E1,7.117698669E0,8.476123810E0,2.689367860E1
6.083101708E0,2.127750320E1,4.232897644E0,8.002658386E0,2.312341035E1
6.093069708E0,1.658985123E1,1.262175293E0,1.057984909E1,1.971673038E1
6.103038708E0,1.089883575E1,-1.131497040E0,1.449690353E1,1.817209725E1
6.113006708E0,4.932542725E0,-2.512674866E0,1.492636047E1,1.591979113E1
6.122974708E0,4.842729492E0,-1.746717682E0,1.326197159E1,1.422613588E1
6.132942708E0,8.179141388E0,-4.264631653E-1,1.527618301E1,1.733326259E1
6.142910708E0,1.218076996E1,4.903802490E-1,1.713546661E1,2.102940431E1
6.152878708E0,1.660586792E1,7.608677673E-1,1.828642319E1,2.471289222E1
6.162846708E0,2.171100174E1,9.767189026E-1,2.182805832E1,3.080236527E1
6.172814708E0,2.724409561E1,1.323397980E0,2.794523758E1,3.905033203E1
6.182782708E0,3.273348038E1,1.633702698E0,3.269516006E1,4.629387879E1
6.192751708E0,3.752621384E1,1.664987640E0,3.336307114E1,5.024025701E1
6.202719708E0,4.069422592E1,2.032174072E0,3.209311203E1,5.186634356E1
6.212687708E0,4.122966248E1,2.495909729E0,2.957175522E1,5.079963917E1
6.222655708E0,3.774580719E1,2.512974243E0,2.523437485E1,4.547345021E1
6.232623708E0,3.177472412E1,2.153871002E0,2.111209717E1,3.820985344E1
6.242591708E0,2.620570496E1,1.643582153E0,1.670675812E1,3.112163398E1
6.252559708E0,2.256437714E1,1.549128571E0,1.309012894E1,2.613240116E1
6.262527708E0,1.977013779E1,1.489103394E0,1.015937347E1,2.227753681E1
6.272495708E0,1.700269272E1,1.517244873E0,8.005951538E0,1.885441200E1
6.282464708E0,1.436951843E1,1.597627716E0,6.532116394E0,1.586518260E1
6.292432708E0,1.131227600E1,1.295855255E0,5.326373749E0,1.257048474E1
6.302400709E0,8.336015167E0,8.921447754E-1,3.932771759E0,9.260224883E0
6.312368709E0,5.497917023E0,6.185137939E-1,2.594255219E0,6.110630985E0
6.322336709E0,2.694247284E0,3.195854187E-1,1.876348114E0,3.298755146E0
6.332304709E0,3.706292725E-1,1.874102783E-1,1.480720825E0,1.537863073E0
6.342272709E0,-1.219064941E0,1.263372803E-1,1.301693115E0,1.787871753E0
6.352240709E0,-2.170336761E0,1.333726501E-1,1.235081635E0,2.500715211E0
6.362208709E0,-3.431763611E0,4.026626587E-2,1.401984558E0,3.707314871E0
6.372177708E0,-5.238656158E0,-2.189945984E-1,2.603386230E0,5.853981282E0
6.382145708E0,-6.846612396E0,-4.878355408E-1,6.005062408E0,9.120025184E0
6.392113708E0,-7.591762848E0,-9.247769165E-1,1.275198212E1,1.486953676E1
6.402081708E0,-8.253087616E0,-1.631756744E0,1.714444794E1,1.909733438E1
6.412049708E0,-9.138197021E0,-2.055824890E0,1.651350998E1,1.898496965E1
6.422017708E0,-1.047985703E1,-2.433639221E0,1.290795776E1,1.680373104E1
6.431985708E0,-1.219364319E1,-2.237247620E0,8.114924927E0,1.481695710E1
6.441953708E0,-1.228989304E1,-1.323697357E0,4.846771088E0,1.327722996E1
6.451921708E0,-1.095526840E1,-7.081773376E-1,3.952231293E0,1.166788555E1
6.461890709E0,-8.857979736E0,-5.670208740E-1,3.159928894E0,9.421808122E0
6.471859000E0,-6.440656586E0,-3.480262756E-1,1.918111267E0,6.729214692E0
6.481827000E0,-5.168152771E0,-1.035845947E-1,1.042432251E0,5.273253060E0
6.491795000E0,-3.877985687E0,3.876937866E-2,3.329077148E-1,3.892441856E0
6.501763000E0,-2.909948730E0,1.945953369E-2,-5.120851135E-1,2.954726967E0
6.511731000E0,-2.208357697E0,-3.502716064E-2,-1.084195404E0,2.460396369E0
6.521699000E0,-1.362915802E0,-1.456471252E-1,-1.340013428E0,1.916869467E0
6.531667000E0,-7.945477295E-1,-2.236349487E-1,-1.462758179E0,1.679577380E0
6.541636000E0,-5.577401733E-1,-3.203338623E-1,-1.667831726E0,1.787554349E0
6.551604000E0,-5.525010681E-1,-3.543132019E-1,-1.862876129E0,1.975120945E0
6.561572000E0,-7.204518127E-1,-3.564088440E-1,-1.987866211E0,2.144222505E0
6.571540000E0,-1.037492523E0,-4.162843323E-1,-2.224075012E0,2.489215346E0
6.581508000E0,-1.297801208E0,-4.381388855E-1,-2.578537903E0,2.919779337E0
6.591476000E0,-1.491947479E0,-4.824467468E-1,-2.910547485E0,3.306047309E0
6.601444000E0,-1.570833435E0,-5.742059326E-1,-3.235521698E0,3.642228822E0
6.611412000E0,-1.657802582E0,-6.664141846E-1,-3.520529022E0,3.947979466E0
6.621380000E0,-1.766925659E0,-6.950047302E-1,-3.629951477E0,4.096535803E0
6.631349000E0,-1.758543091E0,-5.010081482E-1,-3.561843109E0,4.003774382E0
6.641317000E0,-1.845362549E0,-4.965174866E-1,-3.482508087E0,3.972373991E0
6.651285000E0,-1.907034302E0,-5.992039490E-1,-3.144810333E0,3.726346365E0
6.661253000E0,-1.542093201E0,-7.183561707E-1,-1.216520233E0,2.091413040E0
6.671221000E0,-1.449735260E0,-7.482939148E-1,1.605411530E0,2.288891060E0
6.681189000E0,-2.033521271E0,-8.003855896E-1,-1.469344482E0,2.633400664E0
6.691157000E0,-1.717678070E0,-7.694000244E-1,-3.643423462E0,4.100844897E0
6.701125000E0,-9.262738037E-1,-4.484674072E-1,-3.202290802E0,3.363595183E0
6.711093000E0,-4.340972900E-1,-1.959425354E-1,-2.564766541E0,2.608612915E0
6.721062000E0,-2.272274780E-1,-3.382965088E-2,-1.971849518E0,1.985186967E0
6.731030000E0,-2.369572449E-1,6.017486572E-2,-1.439706116E0,1.460316216E0
6.740998000E0,-3.315605164E-1,1.044827271E-1,-1.019380188E0,1.077025990E0
6.750966000E0,-3.938310242E-1,1.203497314E-1,-6.741979980E-1,7.900189074E-1
6.760934000E0,-4.311035156E-1,1.598675537E-1,-4.314028931E-1,6.304889627E-1
6.770902000E0,-4.349954224E-1,1.922003174E-1,-2.290237427E-1,5.278388525E-1
6.780870000E0,-4.656816101E-1,1.922003174E-1,-3.412902832E-2,5.049407040E-1
6.790838000E0,-5.420228577E-1,1.402583313E-1,1.210981750E-1,5.728227874E-1
6.800807000E0,-6.581813049E-1,3.906875610E-2,2.139051819E-1,6.931698383E-1
6.810775000E0,-6.641688538E-1,-6.915618896E-2,2.323168945E-1,7.070176690E-1
6.820743000E0,-4.938230896E-1,-1.152603149E-1,2.409988403E-1,5.614504654E-1
6.830711000E0,-4.656816101E-1,-2.607577515E-1,5.532495117E-1,7.687255617E-1
6.840679000E0,-6.661148071E-1,-5.599855042E-1,1.428030396E0,1.672292891E0
6.850647000E0,-4.709207153E-1,-7.053332520E-1,2.148332520E0,2.309673988E0
6.860615000E0,1.858684845E0,-5.034031677E-1,2.378853149E0,3.060566354E0
6.870583000E0,1.211520630E1,-8.143066406E-2,8.098608856E0,1.457299969E1
6.880551000E0,4.125256485E1,1.781295776E-2,1.659149780E1,4.446405541E1
6.890520000E0,8.162510971E1,-1.479463440E1,2.115969818E1,8.561117082E1
6.900488000E0,8.043149185E1,-7.296726379E0,9.261690216E0,8.129111884E1
6.910456000E0,8.819270233E1,-9.179960175E0,4.995861053E0,8.880981388E1
6.920424000E0,9.833111938E1,-7.073690186E0,8.639434204E0,9.896305349E1
6.930392000E0,7.344177704E1,1.977388000E-1,5.694757690E0,7.366250050E1
6.940360000E0,4.471501465E1,3.526666260E-1,-3.128494263E-1,4.471749975E1
6.950328000E0,3.150887695E1,1.769919434E0,-9.180409241E-1,3.157189796E1
6.960296000E0,1.963422043E1,1.627565460E0,-4.123175812E0,2.012839189E1
6.970265000E0,1.202853653E1,1.538051605E0,-3.304977264E0,1.256877753E1
6.980233000E0,7.667056274E0,1.701212311E0,-1.609752502E0,8.016805995E0
6.990201000E0,3.915108490E0,1.531315613E0,-8.247848511E-1,4.284071900E0
7.000169000E0,7.632627869E-1,9.128018188E-1,-1.119671631E-1,1.195120867E0
7.010137000E0,-9.663903809E-1,3.158432007E-1,-1.547781372E-1,1.028408269E0
7.020105000E0,-1.482517090E0,-1.122665405E-1,-5.421725464E-1,1.582533339E0
7.030073000E0,-1.695823517E0,-1.887574768E-1,1.166075134E-1,1.710276030E0
7.040041000E0,-1.958976288E0,-4.056564331E-1,6.113287354E-1,2.091857562E0
7.050009000E0,-2.139351196E0,-5.321434021E-1,6.298901367E-1,2.292762902E0
7.059978000E0,-1.726060638E0,-5.360353088E-1,7.162605286E-1,1.944131766E0
7.069946000E0,-1.034199371E0,-4.960684204E-1,8.012837219E-1,1.399181125E0
7.079914000E0,-6.518943787E-1,-4.372407532E-1,1.330732727E0,1.544990404E0
7.089882000E0,-9.041198730E-1,-4.561015320E-1,1.096320190E0,1.492440723E0
7.099850000E0,-1.598076782E0,-3.514691162E-1,5.665718079E-1,1.731584117E0
7.109818000E0,-3.250041504E0,-4.652325439E-1,9.621990967E-1,3.421262661E0
7.119786000E0,-3.913012848E0,-1.026714935E0,1.431173859E0,4.291162048E0
7.129754000E0,-2.890938263E0,-1.193468170E0,1.093326416E0,3.313193771E0
7.139723000E0,-1.457818451E0,-9.089099121E-1,5.520520020E-1,1.804470359E0
7.149691000E0,-6.340814209E-1,-6.276448059E-1,1.413061523E-1,9.033076328E-1
7.159659000E0,-1.896556091E-1,-5.138813782E-1,-1.320254517E-1,5.634483479E-1
7.169627000E0,1.916015625E-2,-4.611909485E-1,-1.134640503E-1,4.753296680E-1
7.179595000E0,5.134323120E-2,-4.201762390E-1,-1.434017944E-1,4.469320685E-1
7.189563000E0,7.978408813E-2,-4.442761230E-1,-2.201921082E-1,5.022263819E-1
7.199531000E0,1.420545959E-1,-4.683760071E-1,-4.152365112E-1,6.418543078E-1
7.209499000E0,1.927990723E-1,-4.638853455E-1,-7.640112305E-1,9.143709621E-1
7.219468000E0,3.589535522E-1,-4.315525818E-1,-1.126557312E0,1.258656689E0
7.229436000E0,6.927593994E-1,-3.393443298E-1,-1.274150391E0,1.489472852E0
7.239404000E0,1.468596039E0,-1.434017944E-1,-1.128203888E0,1.857466665E0
7.249372000E0,2.751727753E0,-3.936813354E-2,-6.248007202E-1,2.822043836E0
7.259340000E0,4.267775116E0,-3.653901672E-1,-3.761677551E-1,4.299874021E0
7.269308000E0,6.195316772E0,-1.137185211E0,-9.095086670E-1,6.364145357E0
7.279276000E0,9.500593414E0,-2.495011597E0,-2.609972534E0,1.016357785E1
7.289244000E0,1.212718140E1,-3.559897156E0,-7.139253845E0,1.451586518E1
7.299212000E0,1.278281799E1,-2.559228058E0,-1.299777100E1,1.840902319E1
7.309181000E0,1.609033997E1,-1.624122620E-1,-1.842353806E1,2.446123816E1
7.319149000E0,2.767998917E1,1.834884338E0,-4.159774704E1,4.999921159E1
7.329117000E0,3.478496429E1,1.975142670E0,-4.356301025E1,5.578199344E1
7.339085000E0,2.693663498E1,2.620600433E0,-2.674054276E1,3.804610989E1
7.349053000E0,1.633687729E1,1.338965607E0,-1.710028976E1,2.368768242E1
7.359021000E0,8.772806854E0,-4.360432434E-1,-8.206085358E0,1.202048712E1
7.368989000E0,6.919510803E0,-1.076261902E-1,-4.424199829E0,8.213693279E0
7.378957000E0,9.376351776E0,5.797444153E-1,-5.808670807E0,1.104503204E1
7.388926000E0,1.417896469E1,1.810634766E0,-8.693771210E0,1.673030471E1
7.398894000E0,1.864792145E1,2.373464355E0,-1.146181503E1,2.201707318E1
7.408862000E0,2.138947037E1,8.659492493E-1,-1.522244476E1,2.626751102E1
7.418830000E0,2.414643723E1,-5.292993164E-1,-1.829510513E1,3.029919900E1
7.428798000E0,2.722328888E1,-1.464704132E0,-2.075553864E1,3.426434298E1
7.438766000E0,3.141008240E1,-2.532284088E0,-2.277843201E1,3.888267871E1
7.448734000E0,3.657913330E1,-2.534230042E0,-2.612008301E1,4.501904099E1
7.458702000E0,4.232822800E1,-1.867067413E0,-2.979239639E1,5.179528655E1
7.468670500E0,4.686918503E1,-6.743476868E-1,-2.837334732E1,5.479253679E1
7.478638500E0,4.485242889E1,1.024619293E0,-2.445973572E1,5.109861929E1
7.488606500E0,3.521232559E1,1.659000092E0,-2.012460068E1,4.059137479E1
7.498574500E0,2.742941025E1,2.514171753E0,-1.631921402E1,3.201578286E1
7.508542500E0,2.487661880E1,3.202290802E0,-1.320763458E1,2.834682418E1
7.518510500E0,2.043849792E1,2.372865601E0,-1.289673111E1,2.428349979E1
7.528478500E0,1.550176392E1,1.104104004E0,-1.141720779E1,1.928409614E1
7.538446500E0,1.198782120E1,9.804611206E-2,-9.851014709E0,1.551644163E1
7.548415500E0,9.267079010E0,-6.695576477E-1,-7.402556305E0,1.187960019E1
7.558383500E0,7.157515869E0,-1.396146698E0,-4.423152008E0,8.528981927E0
7.568351500E0,5.700745239E0,-1.453477478E0,-2.152673492E0,6.264590667E0
7.578319500E0,4.411925354E0,-1.142274628E0,-4.733157349E-1,4.581910566E0
7.588287500E0,3.147055664E0,-9.304650879E-1,1.337019653E0,3.543634601E0
7.598255500E0,2.452949066E0,-6.182144165E-1,3.409459991E0,4.245417014E0
7.608223500E0,2.159559174E0,-3.444337463E-1,5.106630707E0,5.555178449E0
7.618191500E0,2.173180847E0,-1.616638184E-1,6.479276276E0,6.835925046E0
7.628160500E0,2.490820312E0,-1.767823792E-1,8.057444458E0,8.435511190E0
7.638128500E0,3.427422638E0,-2.772235107E-1,1.029454239E1,1.085364832E1
7.648096500E0,4.337530060E0,-5.560935974E-1,1.175011551E1,1.253748865E1
7.658064500E0,4.915328522E0,-1.136736145E0,1.220157669E1,1.320345020E1
7.668032500E0,5.556894379E0,-1.659449158E0,1.125524460E1,1.266149192E1
7.678000500E0,6.316564636E0,-1.732497253E0,8.999734955E0,1.113084744E1
7.687968500E0,6.464756470E0,-1.630858612E0,5.591921539E0,8.701859717E0
7.697936500E0,5.636828156E0,-1.007255402E0,1.093476105E0,5.829587043E0
7.707905500E0,2.759960632E0,1.002914429E-2,9.240284729E-1,2.910551820E0
7.717873500E0,-1.344354401E0,-8.634045410E-1,3.215313721E-1,1.629766419E0
7.727841500E0,-5.053640900E0,-2.021546173E0,-8.252339172E-1,5.505174501E0
7.737809500E0,-6.660399628E0,-2.203268280E0,-1.948348389E0,7.280891138E0
7.747777500E0,-6.443500671E0,-1.196461945E0,-2.857258301E0,7.149415856E0
7.757745500E0,-5.483846283E0,-5.926176453E-1,-4.419409790E0,7.067881480E0
7.767713500E0,-4.666695557E0,-4.364923096E-1,-3.941304016E0,6.123924420E0
7.777681500E0,-4.096082153E0,-3.122506714E-1,-3.905827789E0,5.668410730E0
7.787650500E0,-3.182232513E0,4.266128540E-2,-2.587818604E0,4.101856760E0
7.797618500E0,-2.453398132E0,4.348457336E-1,-9.717791748E-1,2.674436010E0
7.807586500E0,-1.863025818E0,6.032455444E-1,-2.827619934E-1,1.978566332E0
7.817554500E0,-1.113684082E0,6.063890076E-1,-6.054908752E-1,1.405211394E0
7.827522500E0,-2.031275940E-1,7.689509583E-1,-1.125958557E0,1.378524236E0
7.837490500E0,1.995350647E-1,3.793112183E-1,-1.661844177E0,1.716221813E0
7.847458500E0,4.523593140E-1,1.074765015E-1,-1.931433563E0,1.986609110E0
7.857426500E0,4.445755005E-1,-7.993377686E-2,-1.609153748E0,1.671350522E0
7.867395500E0,6.653663635E-1,-1.986369324E-1,-3.139870605E0,3.215735755E0
7.877363500E0,5.588029633E0,3.052153015E-1,-1.714684296E1,1.803700238E1
7.887331500E0,1.513278122E1,1.456471252E-1,-2.923809906E1,3.292246524E1
7.897299500E0,6.207142181E0,-5.718109131E-2,-3.246299286E0,7.005022683E0
7.907267500E0,-3.459306335E-1,3.641926575E-1,3.612437897E0,3.647192325E0
7.917235500E0,-1.559756470E0,2.351609802E-1,2.039957886E0,2.578675844E0
7.927203500E0,-2.007176056E0,1.148112488E-1,1.855541382E0,2.735867534E0
7.937172500E0,-2.078577576E0,1.883084106E-1,1.657054138E0,2.664915236E0
7.947140500E0,-2.158960419E0,2.225871277E-1,1.471290436E0,2.622088989E0
7.957108500E0,-2.070195007E0,2.124082947E-1,1.173110504E0,2.388935518E0
7.967076500E0,-1.946402435E0,1.682501221E-1,7.866142273E-1,2.106075138E0
7.977044500E0,-1.821562042E0,1.342707825E-1,6.333329773E-1,1.933191035E0
7.987012500E0,-1.750908966E0,1.805245972E-1,6.471043396E-1,1.875370727E0
7.996980500E0,-1.630858612E0,2.793191528E-1,6.596781921E-1,1.781262002E0
8.006948500E0,-1.444945221E0,3.338058472E-1,5.866300964E-1,1.594812812E0
8.016917500E0,-1.204245758E0,3.150947571E-1,5.054988098E-1,1.343510922E0
8.026885500E0,-1.006956024E0,1.676513672E-1,5.406756592E-1,1.155161280E0
8.036853500E0,-8.101153564E-1,-1.526824951E-2,4.794529724E-1,9.414856148E-1
8.046821500E0,-2.929408264E-1,-1.812730408E-1,2.112107849E-1,4.040844451E-1
8.056789500E0,5.037025452E-1,-3.026705933E-1,-5.783972168E-1,8.245417409E-1
8.066757500E0,1.064436493E0,-3.737727356E-1,-4.228706360E-1,1.204803171E0
8.076725500E0,2.787203979E0,-4.900808716E-1,2.826721802E0,3.999880177E0
8.086693500E0,7.238198090E0,-3.734733582E-1,9.159452820E0,1.168017850E1
8.096662500E0,9.078920288E0,-2.430944824E-1,1.433613785E1,1.697087909E1
8.106630500E0,-4.180955658E0,4.833448792E-1,7.073839874E0,8.231234601E0
8.116598500E0,-1.513397873E1,-2.014810181E-1,-4.939877472E0,1.592106454E1
8.126566500E0,2.664159851E0,3.134481812E-1,-8.213869171E0,8.640812707E0
8.136534500E0,3.439652206E1,-1.168320465E0,6.300098877E0,3.498824015E1
8.146502500E0,7.422824158E1,-3.350482635E0,6.476147781E1,9.856524027E1
8.156470500E0,8.865149826E1,-6.819818115E-1,6.774222931E1,1.115731279E2
8.166438500E0,8.172974213E1,-9.034612427E0,4.821788040E1,9.532228994E1
8.176407500E0,8.084193832E1,-5.875282288E0,3.462599487E1,8.814134929E1
8.186375500E0,5.507092941E1,-4.316873016E0,1.736404129E1,5.790468538E1
8.196343500E0,3.323972763E1,-2.815794525E0,7.084318085E0,3.410272356E1
8.206311500E0,1.936223602E1,-2.432591400E0,1.323248291E0,1.955926049E1
8.216279500E0,1.174652298E1,-1.712738342E0,2.297721863E-1,1.187295540E1
8.226247500E0,7.845485229E0,-7.917036438E-1,2.462379456E-1,7.889173992E0
8.236215500E0,4.795876923E0,-8.741821289E-2,5.002597046E-1,4.822689828E0
8.246183500E0,2.598745880E0,2.891986084E-1,7.038363647E-1,2.707859231E0
8.256152500E0,1.222507782E0,3.948788452E-1,2.174977112E-1,1.302981133E0
8.266120500E0,5.938151550E-1,5.306465149E-1,2.619552612E-2,7.967988251E-1
8.276088500E0,3.336561584E-1,4.661306763E-1,2.871029663E-1,6.411180490E-1
8.286056500E0,3.634442139E-1,3.348536682E-1,3.375480652E-1,5.984625068E-1
8.296024500E0,3.311114502E-1,1.960922241E-1,1.652563477E-1,4.188037885E-1
8.305992500E0,2.981799316E-1,1.044827271E-1,1.028361511E-1,3.322697486E-1
8.315960500E0,4.849914551E-2,8.098159790E-2,1.661544800E-2,9.584497601E-2
8.325929500E0,-1.686991882E-1,1.246907043E-1,-7.604187012E-2,2.231357297E-1
8.335897500E0,-1.248403931E-1,2.112107849E-1,-5.882766724E-2,2.523010381E-1
8.345865500E0,-1.077758789E-1,3.356021118E-1,-2.646496582E-1,4.407764276E-1
8.355833500E0,-3.061134338E-1,5.569917297E-1,-4.746629333E-1,7.932528737E-1
8.365801500E0,-7.212002563E-1,7.458988953E-1,-6.953041077E-1,1.248976691E0
8.375769500E0,-7.605683899E-1,8.575666809E-1,-8.300239563E-1,1.415211877E0
8.385737500E0,-1.841171265E-1,7.442523193E-1,-4.778063965E-1,9.033878368E-1
8.395705500E0,5.046006775E-1,3.947291565E-1,1.107696533E-1,6.501560327E-1
8.405674500E0,6.533912659E-1,1.029858398E-1,3.653901672E-1,7.556693747E-1
8.415642500E0,5.906716919E-1,-4.176315308E-2,4.369413757E-1,7.359041883E-1
8.425610500E0,5.577401733E-1,-1.902543640E-1,4.531077576E-1,7.433555434E-1
8.435578500E0,5.574407959E-1,-3.912863159E-1,4.203259277E-1,8.003243764E-1
8.445546500E0,8.701405334E-1,-5.875282288E-1,2.984793091E-1,1.091523644E0
8.455514500E0,1.724863129E0,-6.390211487E-1,9.804611206E-2,1.842040684E0
8.465482500E0,3.319796448E0,-4.330494690E-1,-4.495152283E-1,3.377964511E0
8.475452125E0,5.885311432E0,-2.974314880E-1,-3.046015778E0,6.633518543E0
8.485420125E0,9.444160767E0,-3.412902832E-2,-7.077582092E0,1.180192805E1
8.495388125E0,1.378288834E1,4.354444885E-1,-1.066487228E1,1.743264534E1
8.505356125E0,1.550550613E1,-1.060394897E0,-1.351838837E1,2.059834901E1
8.515324125E0,2.190933929E1,-1.799408112E0,-1.897499130E1,2.903975401E1
8.525292125E0,2.959136444E1,-2.203567657E0,-2.431289108E1,3.836171572E1
8.535260125E0,2.318528595E1,-2.020947418E0,-1.651470749E1,2.853729624E1
8.545228125E0,1.349937790E1,5.093907166E-1,-8.064928894E0,1.573326923E1
8.555197125E0,1.235201385E1,2.144290924E0,-9.374256134E0,1.565397419E1
8.565165125E0,1.398886002E1,2.628983002E0,-1.115136063E1,1.808183066E1
8.575133125E0,1.258882141E1,2.023641815E0,-7.724686432E0,1.490786139E1
8.585101125E0,9.700577545E0,1.337768097E0,-3.084186401E0,1.026659797E1
8.595069125E0,8.289761353E0,1.083147583E0,-1.123563538E0,8.435386594E0
8.605037125E0,9.252559204E0,5.691165161E-1,-1.685345306E0,9.422002666E0
8.615005125E0,1.245514938E1,-6.042933655E-1,-1.329385529E0,1.254046181E1
8.624974125E0,1.974394226E1,-2.667453003E-1,-2.290237427E-1,1.974707221E1
8.634942125E0,3.372412033E1,1.421743469E0,-8.005352783E-1,3.376356769E1
8.644910125E0,4.708668274E1,1.337468719E0,-5.191204834E-1,4.710853426E1
8.654878125E0,5.687378036E1,-3.815565491E-1,-2.705773315E0,5.693938608E1
8.664846125E0,6.462900330E1,-1.615440674E0,-6.324947205E0,6.495785305E1
8.674814125E0,6.521757935E1,-3.247496796E0,-7.202871552E0,6.569444611E1
8.684782125E0,5.578254959E1,-4.343816986E0,-6.733298035E0,5.635511412E1
8.694750125E0,4.164055801E1,-3.763773193E0,-5.846542053E0,4.221710689E1
8.704719125E0,3.465323822E1,-1.873054962E0,-5.326373749E0,3.511019099E1
8.714687125E0,2.937147171E1,-6.975494385E-1,-5.934109955E0,2.997304767E1
8.724655125E0,2.602248596E1,-3.442840576E-3,-4.002377014E0,2.632847905E1
8.734623125E0,2.316507797E1,8.948391724E-1,-3.688779144E0,2.347399979E1
8.744591125E0,2.060465240E1,8.596623230E-1,-3.604354706E0,2.093518791E1
8.754559125E0,1.837054825E1,1.055305481E0,-3.680995331E0,1.876540538E1
8.764527125E0,1.555744812E1,1.061442719E0,-4.494703217E0,1.622846911E1
8.774495125E0,1.247880020E1,7.168592834E-1,-4.834496613E0,1.340174239E1
8.784464125E0,9.704319763E0,4.433779907E-1,-3.877985687E0,1.045988428E1
8.794432125E0,7.014712830E0,9.879455566E-2,-2.503394165E0,7.448687052E0
8.804400125E0,4.549339600E0,-3.809577942E-1,-1.394051056E0,4.773363382E0
8.814368125E0,2.777174835E0,-1.011596375E0,4.466711426E-1,2.989237762E0
8.824336125E0,1.630259857E0,-1.249751129E0,2.792742462E0,3.466848071E0
8.834304125E0,7.581733704E-1,-1.157842255E0,4.433929596E0,4.644906588E0
8.844272125E0,4.969665527E-2,-1.299896851E0,5.389841766E0,5.544600603E0
8.854241125E0,-3.912863159E-1,-1.969753876E0,7.406897278E0,7.674318380E0
8.864209125E0,-2.221380615E-1,-2.674488373E0,1.046997757E1,1.080845334E1
8.874177125E0,8.307723999E-1,-2.680924988E0,1.253927444E1,1.284955039E1
8.884145125E0,2.679428101E0,-2.193089447E0,1.392853546E1,1.435245890E1
8.894113125E0,4.202660522E0,-2.166444855E0,1.529115189E1,1.600547296E1
8.904081125E0,5.202581177E0,-2.112107849E0,1.539069489E1,1.638295881E1
8.914049125E0,3.199446716E0,-2.695594482E0,1.374711273E1,1.436961368E1
8.924018125E0,8.131091309E-1,-3.272494812E0,9.501491547E0,1.008209851E1
8.933986125E0,-2.840044098E0,-2.918780365E0,2.249971161E0,4.652687344E0
8.943954125E0,-7.099736023E0,-1.283880157E0,-3.194207611E0,7.890346134E0
8.953922125E0,-8.227790222E0,-6.815327454E-1,-5.377866669E0,9.853043628E0
8.963890125E0,-7.157216492E0,-6.891668701E-1,-4.224515076E0,8.339497977E0
8.973858125E0,-6.101012878E0,-5.849835205E-1,-4.482279053E0,7.593114603E0
8.983826125E0,-4.990023193E0,-5.071453857E-1,-4.284689941E0,6.596673086E0
8.993795125E0,-4.799918518E0,-5.897735596E-1,-3.362906799E0,5.890347424E0
9.003763125E0,-4.750970306E0,-6.153703308E-1,-2.834355927E0,5.566324911E0
9.013731125E0,-3.597768402E0,-2.384541321E-1,-2.440524902E0,4.353959077E0
9.023699125E0,-2.305805054E0,2.041754150E-1,-2.193239136E0,3.188843435E0
9.033667125E0,-1.225052490E0,4.173321533E-1,-2.003733215E0,2.385344111E0
9.043635125E0,-5.315446472E-1,4.864883423E-1,-1.816772003E0,1.954449061E0
9.053603125E0,-2.713856506E-1,5.155279541E-1,-1.717229004E0,1.813365571E0
9.063571125E0,-1.038839722E-1,4.876858521E-1,-1.524280243E0,1.603764206E0
9.073540125E0,3.817062378E-2,4.537065125E-1,-1.505269775E0,1.572623188E0
9.083508125E0,6.032455444E-2,4.052073669E-1,-1.521885223E0,1.576060499E0
9.093476125E0,1.763333130E-1,3.526666260E-1,-1.293460236E0,1.352222825E0
9.103444125E0,2.863545227E-1,2.580633545E-1,-9.942324829E-1,1.066346022E0
9.113412125E0,2.311193848E-1,2.191442871E-1,-5.834866333E-1,6.647533677E-1
9.123380125E0,-9.909393311E-2,1.871109009E-1,-1.968406677E-1,2.890957372E-1
9.133348125E0,-2.086660767E-1,2.043251038E-1,-3.849993896E-1,4.832337008E-1
9.143317125E0,-2.149530029E-1,2.540217590E-1,-2.647993469E-1,4.252652604E-1
9.153285125E0,-4.135899353E-1,4.520599365E-1,-6.780899048E-2,6.164518473E-1
9.163253125E0,-7.126679993E-1,4.785548401E-1,-5.493576050E-2,8.601908799E-1
9.173221125E0,-7.695497131E-1,3.906875610E-1,6.706054688E-2,8.656446432E-1
9.183189125E0,-6.372248840E-1,2.386038208E-1,2.095642090E-1,7.119722564E-1
9.193157125E0,-5.873785400E-1,1.140628052E-1,4.519102478E-1,7.498311443E-1
9.203125125E0,-6.497987366E-1,5.703140259E-2,7.128176880E-1,9.662298046E-1
9.213094125E0,-6.568341064E-1,7.708969116E-2,1.029259644E0,1.223417050E0
9.223062125E0,-6.351292419E-1,1.528321838E-1,1.143023071E0,1.316528986E0
9.233030125E0,-6.150709534E-1,2.742297363E-1,1.139131165E0,1.323304211E0
9.242998125E0,-6.131250000E-1,3.046165466E-1,1.161734161E0,1.348458293E0
9.252966125E0,-6.640191650E-1,2.752775574E-1,1.147513733E0,1.354063127E0
9.262934125E0,-8.045768738E-1,1.613644409E-1,9.536668396E-1,1.258118782E0
9.272902125E0,-9.626481628E-1,-3.442840576E-3,9.177415466E-1,1.330019881E0
9.282871125E0,-1.096918945E0,-1.889071655E-1,1.374591522E0,1.768733712E0
9.292839125E0,-1.177900543E0,-4.064048767E-1,2.058968353E0,2.406650222E0
9.302807125E0,-1.285826111E0,-6.062393188E-1,2.726729736E0,3.075049586E0
9.312775125E0,-1.313518524E0,-7.177574158E-1,3.103047180E0,3.445200781E0
9.322743125E0,-9.833052063E-1,-6.524931335E-1,2.830464020E0,3.066620776E0
9.332711125E0,-5.477110291E-1,-3.640429688E-1,1.888323212E0,1.999569755E0
9.342679125E0,-2.290237427E-1,-1.321751404E-1,8.390052795E-1,8.796885821E-1
9.352648125E0,3.608995056E-1,-9.729766846E-2,1.922003174E-1,4.203049505E-1
9.362616125E0,3.166365509E0,-6.354286194E-1,3.115471344E0,4.487293367E0
9.372584125E0,1.047072601E1,-1.044527893E0,8.546028442E0,1.355587489E1
9.382552125E0,3.233186554E1,-1.853146362E-1,9.238638153E0,3.362642273E1
9.392520125E0,6.841058945E1,-6.003715210E0,1.406864410E1,7.009978667E1
9.402488125E0,8.816336334E1,-2.136626862E1,1.360356125E1,9.172978224E1
9.412456125E0,7.862415024E1,-1.279614029E1,-4.124523010E0,7.976534271E1
9.422424125E0,8.280989594E1,-9.399403839E0,-6.988966370E0,8.363416352E1
9.432393125E0,7.423512726E1,-8.511001282E0,-1.975741425E0,7.474754054E1
9.442361125E0,5.310940842E1,-7.466024323E0,-5.451663208E0,5.390799025E1
9.452329125E0,3.651072556E1,-5.597160645E0,-4.615352325E0,3.722449147E1
9.462297125E0,2.400423294E1,-3.151097260E0,-2.769690399E0,2.436808975E1
9.472265500E0,1.575533661E1,-1.626966705E0,-8.220904541E-1,1.586043773E1
9.482233500E0,9.786349182E0,-6.631210327E-1,-7.207511902E-1,9.835234725E0
9.492201500E0,3.973636780E0,-5.514532471E-1,1.871109009E-1,4.016080232E0
9.502170500E0,1.226699066E0,-3.571572876E-1,2.244432678E0,2.582601397E0
9.512138500E0,-1.383123779E-1,5.821394348E-1,2.332898712E0,2.408408818E0
9.522106500E0,-6.771917725E-1,8.300239563E-1,1.524579620E0,1.863295866E0
9.532074500E0,-1.080752563E0,7.396119690E-1,9.044192505E-1,1.591548349E0
9.542042500E0,-1.322200470E0,6.662644958E-1,1.068627777E0,1.825948462E0
9.552010500E0,-1.420246582E0,7.095245361E-1,1.359023895E0,2.089849604E0
9.561978500E0,-1.401984558E0,8.485853577E-1,9.711804199E-1,1.904953863E0
9.571947500E0,-1.066981201E0,1.051114197E0,7.340734863E-1,1.667978963E0
9.581915500E0,-6.936575317E-1,1.215771790E0,6.584806824E-1,1.546886752E0
9.591883500E0,-5.697152710E-1,1.283730469E0,2.800675964E-1,1.432123341E0
9.601851500E0,-6.948550415E-1,1.305435333E0,-3.209326172E-1,1.513268873E0
9.611819500E0,-8.514294434E-1,1.270258484E0,-6.848258972E-1,1.675552214E0
9.621787500E0,-8.773255920E-1,1.205742645E0,-1.052311707E0,1.825068615E0
9.631755500E0,-7.771838379E-1,1.216071167E0,-1.546583862E0,2.115364140E0
9.641724500E0,-6.018983459E-1,1.307081909E0,-1.787582703E0,2.294819526E0
9.651692500E0,-3.908372498E-1,1.344204712E0,-1.791324921E0,2.273430235E0
9.661660500E0,-8.053253174E-2,1.231339417E0,-1.866468658E0,2.237495810E0
9.671628500E0,1.582209778E-1,9.039701843E-1,-2.052831116E0,2.248624371E0
9.681596500E0,1.850152588E-1,3.980223083E-1,-2.151176605E0,2.195498392E0
9.691564500E0,1.929487610E-1,-5.388793945E-2,-1.964664459E0,1.974851785E0
9.701532500E0,3.770658875E-1,-5.046006775E-1,-1.630409546E0,1.747866075E0
9.711501500E0,7.312294006E-1,-6.854246521E-1,-1.765578461E0,2.030214445E0
9.721469500E0,1.292262726E0,-5.403762817E-1,-3.941154327E0,4.182660267E0
9.731437500E0,2.187550964E0,-7.686515808E-1,-6.924600220E0,7.302485377E0
9.741405500E0,4.713248749E0,8.158035278E-2,-8.189769287E0,9.449533856E0
9.751373500E0,7.701334991E0,6.216572571E-1,-1.262669266E1,1.480305326E1
9.761341500E0,1.196207474E1,-8.861572266E-2,-1.792896652E1,2.155335068E1
9.771309500E0,2.139845169E1,-1.354533234E0,-2.315579727E1,3.155819137E1
9.781278500E0,2.719110580E1,-3.896846466E0,-2.286360489E1,3.573913927E1
9.791246500E0,3.208802261E1,-2.322719879E0,-2.200094879E1,3.897535081E1
9.801214500E0,3.043710571E1,-2.468516693E0,-1.520702682E1,3.411399484E1
9.811182500E0,1.984153931E1,-2.759212189E0,-4.363276520E0,2.050214906E1
9.821150500E0,1.565369797E1,-1.685944061E0,-4.963677979E-1,1.575204902E1
9.831118500E0,1.822684708E1,-1.333876190E0,-1.757046204E0,1.835985815E1
9.841086500E0,2.173570038E1,-1.364562378E0,-4.098177795E0,2.216072568E1
9.851055500E0,2.487242752E1,-1.518292694E0,-5.987099762E0,2.562787988E1
9.861023500E0,2.948433701E1,-2.219284973E0,-7.021748199E0,3.039006914E1
9.870991500E0,3.762111649E1,-2.353106689E0,-7.824828186E0,3.849822662E1
9.880959500E0,4.748365723E1,-2.233355713E0,-1.030292496E1,4.863985859E1
9.890927500E0,5.510311249E1,-2.469564514E0,-1.165925446E1,5.637721144E1
9.900895500E0,5.577252045E1,-3.386856995E0,-1.439810898E1,5.770052322E1
9.910863500E0,5.033313171E1,-4.757556610E0,-1.543245804E1,5.286037509E1
9.920831500E0,4.152200455E1,-4.426594849E0,-1.267100052E1,4.363743642E1
9.930800500E0,3.174523544E1,-3.651955719E0,-1.202239929E1,3.414139480E1
9.940768500E0,2.486120087E1,-3.345692596E0,-1.178574142E1,2.771600022E1
9.950736500E0,2.054582474E1,-3.122806091E0,-1.021909927E1,2.315842875E1
9.960704500E0,1.731673965E1,-2.430944824E0,-9.065448303E0,1.969673369E1
9.970672500E0,1.483385284E1,-1.689087524E0,-7.277416534E0,1.660894332E1
9.980640500E0,1.219454132E1,-1.389560394E0,-6.293811951E0,1.379310643E1
9.990609500E0,9.455686798E0,-1.576820984E0,-5.643564148E0,1.112412664E1
1.000057750E1,7.173233185E0,-2.030826874E0,-4.478686523E0,8.697020472E0
1.001054550E1,5.712720337E0,-2.020648041E0,-2.613415375E0,6.599100853E0
1.002051350E1,4.685855713E0,-1.675615540E0,-7.756869507E-1,5.036528710E0
1.003048150E1,3.657045135E0,-1.440304871E0,1.228046265E0,4.117833760E0
1.004044950E1,2.780318298E0,-1.244362335E0,3.842359772E0,4.903298489E0
1.005041750E1,2.103575592E0,-1.201551361E0,6.812633057E0,7.230541135E0
1.006038650E1,1.218017120E0,-1.110839996E0,8.673563232E0,8.828829501E0
1.007035450E1,6.997947693E-1,-1.254391479E0,9.998158722E0,1.010081128E1
1.008032250E1,1.042881317E0,-1.393003235E0,1.218032089E1,1.230399433E1
1.009029050E1,2.220183105E0,-1.368454285E0,1.425410843E1,1.449073798E1
1.010025850E1,3.709735565E0,-1.271006927E0,1.499955826E1,1.550368809E1
1.011022650E1,4.209845581E0,-1.264121246E0,1.378139145E1,1.446539155E1
1.012019450E1,2.804268494E0,-1.513352966E0,1.193977112E1,1.235768155E1
1.013016350E1,-1.840722198E0,-2.082918549E0,6.374344482E0,6.954068987E0
1.014013150E1,-5.723797302E0,-6.399192810E-1,1.808539124E0,6.036734714E0
1.015009950E1,-8.640631714E0,-5.373825073E-2,-6.286926270E-1,8.663640034E0
1.016006750E1,-1.052236862E1,-1.817221069E-1,-3.304079132E0,1.103042172E1
1.017003550E1,-1.010533585E1,8.337661743E-2,-3.732338562E0,1.077288798E1
1.018000350E1,-7.944728851E0,5.954617310E-1,-3.576662292E0,8.733029506E0
1.018997150E1,-5.055137787E0,1.300345917E0,-3.203787689E0,6.124505948E0
1.019994050E1,-3.465144196E0,1.588347015E0,-2.916085968E0,4.799336195E0
1.020990850E1,-2.814447327E0,1.171912994E0,-2.199825439E0,3.759484777E0
1.021987650E1,-2.202370148E0,7.382647705E-1,-1.575324097E0,2.806619880E0
1.022984450E1,-1.679058380E0,4.242178345E-1,-1.297651520E0,2.164046506E0
1.023981250E1,-1.264720001E0,2.306703186E-1,-1.143472137E0,1.720538871E0
1.024978050E1,-9.177415466E-1,1.267863464E-1,-1.012494507E0,1.372395515E0
1.025974950E1,-6.756948853E-1,1.038839722E-1,-9.301657104E-1,1.154367232E0
1.026971750E1,-4.854405212E-1,1.218466187E-1,-7.888595581E-1,9.342368546E-1
1.027968550E1,-3.851490784E-1,1.553768921E-1,-4.873864746E-1,6.403337933E-1
1.028965350E1,-4.510121155E-1,2.119592285E-1,4.655319214E-2,5.005055869E-1
1.029962150E1,-4.779560852E-1,2.472857666E-1,4.343966675E-1,6.915871127E-1
1.030958950E1,-4.059558105E-1,3.026705933E-1,6.557862854E-1,8.285319911E-1
1.031955750E1,-3.629951477E-1,3.400927734E-1,9.291178894E-1,1.053892131E0
1.032952650E1,-2.685415649E-1,3.266207886E-1,1.171164551E0,1.245159474E0
1.033949450E1,-4.610412598E-2,3.375480652E-1,1.280736694E0,1.325273846E0
1.034946250E1,-2.275268555E-2,2.878514099E-1,1.222058716E0,1.255708415E0
1.035943050E1,-1.161584473E-1,2.631527710E-1,1.238973541E0,1.271926728E0
1.036939850E1,-3.134481812E-1,3.623963928E-1,1.346150665E0,1.428881563E0
1.037936650E1,-5.171745300E-1,4.173321533E-1,1.045575714E0,1.238896362E0
1.038933450E1,-7.420069885E-1,4.279600525E-1,6.815327454E-1,1.094628275E0
1.039930350E1,-1.053209839E0,3.710783386E-1,4.068539429E-1,1.188478115E0
1.040927150E1,-1.305734711E0,2.957849121E-1,1.133143616E-1,1.343604106E0
1.041923950E1,-1.699715424E0,1.815724182E-1,-6.017486572E-2,1.710444994E0
1.042920750E1,-2.229164429E0,-2.230361938E-2,-3.251239014E-1,2.252859750E0
1.043917550E1,-2.623594208E0,-2.936892700E-1,-7.427554321E-1,2.742478001E0
1.044914350E1,-2.741848297E0,-5.539979553E-1,-1.175056458E0,3.034040787E0
1.045911250E1,-2.508932648E0,-6.944059753E-1,-1.442400513E0,2.976148842E0
1.046908050E1,-2.136507111E0,-7.599696350E-1,-1.904788971E0,2.961492445E0
1.047904750E1,-1.313967590E0,-5.810916138E-1,-2.071392517E0,2.520881840E0
1.048901550E1,-3.043171692E-1,-2.439926147E-1,-1.974843292E0,2.012994626E0
1.049898350E1,8.891510010E-2,-2.094145203E-1,-1.671424255E0,1.686837093E0
1.050895150E1,1.776805115E-1,-2.845582581E-1,-1.359772339E0,1.400544387E0
1.051891950E1,2.522254944E-1,-2.553689575E-1,-1.060993652E0,1.120061844E0
1.052888850E1,3.254232788E-1,-2.127076721E-1,-1.177451477E0,1.239974534E0
1.053885650E1,9.970765686E-1,-7.933502197E-3,-2.069895630E0,2.297540542E0
1.054882450E1,5.898633728E0,8.663983154E-1,-4.875960388E0,7.701916359E0
1.055879250E1,1.606159973E1,1.315314789E0,-2.012115784E0,1.624049411E1
1.056876050E1,1.993389725E1,1.479822693E0,7.369175720E-1,2.000232942E1
1.057872850E1,2.746323990E1,3.685336304E-1,8.221652985E0,2.866986119E1
1.058869650E1,8.864865417E1,6.187083893E0,3.707340546E1,9.628759674E1
1.059866550E1,8.432863770E1,1.347213455E1,6.152415985E1,1.052522674E2
1.060863350E1,7.226657089E1,9.731263733E-1,6.689813461E1,9.848230632E1
1.061860150E1,7.762707367E1,-8.563691711E-1,7.954847809E1,1.111515016E2
1.062856950E1,4.774022369E1,-1.088087311E0,4.483686127E1,6.550310695E1
1.063853750E1,2.850986343E1,-1.108744354E0,2.351055954E1,3.697009652E1
1.064850550E1,1.824989914E1,7.080276489E-2,1.370160736E1,2.282099638E1
1.065847350E1,1.081261505E1,7.402107239E-1,7.040010223E0,1.292371077E1
1.066844250E1,5.628744965E0,1.598675537E-1,3.689527588E0,6.732082986E0
1.067841050E1,2.308349762E0,-5.084925842E-1,1.215023346E0,2.657691679E0
1.068837850E1,1.242416382E-1,-6.001020813E-1,-9.081614685E-1,1.095589223E0
1.069834650E1,-1.022823029E0,-4.664300537E-1,-1.570833435E0,1.931642209E0
1.070831450E1,-1.985920258E0,-5.766009521E-1,-2.226020966E0,3.038341203E0
1.071828250E1,-3.263812866E0,-1.145867157E0,-3.251837769E0,4.747624126E0
1.072825050E1,-3.607797546E0,-1.481169891E0,-3.837420044E0,5.471367286E0
1.073821950E1,-4.306993561E0,-1.743274841E0,-4.795128479E0,6.677009648E0
1.074818750E1,-3.587439880E0,-1.440304871E0,-3.667523346E0,5.328689380E0
1.075815550E1,-2.211201782E0,-7.915539551E-1,-1.530417480E0,2.803238957E0
1.076812350E1,-2.350412292E0,-6.743476868E-1,-6.661148071E-1,2.534342456E0
1.077809150E1,-2.256707153E0,-6.448590088E-1,2.133064270E-1,2.356707438E0
1.078805950E1,-2.683469696E0,-8.056246948E-1,5.993536377E-1,2.865181590E0
1.079802850E1,-4.227508850E0,-1.194965057E0,1.506018219E0,4.644121385E0
1.080799650E1,-4.145928497E0,-9.988728333E-1,1.873354340E0,4.657888634E0
1.081796450E1,-3.398083649E0,-7.500901794E-1,1.774709473E0,3.906302788E0
1.082793250E1,-2.518662415E0,-2.384541321E-1,1.896107025E0,3.161604432E0
1.083790050E1,-1.487905884E0,2.070195007E-1,1.287322998E0,1.978363337E0
1.084786850E1,-5.743556213E-1,3.143463135E-1,6.716532898E-1,9.379851418E-1
1.085783650E1,-1.451980591E-2,2.893482971E-1,2.532733154E-1,3.848124662E-1
1.086780550E1,1.384620667E-1,1.037342834E-1,2.290237427E-2,1.745195239E-1
1.087777350E1,2.010319519E-1,-3.936813354E-2,-1.001417542E-1,2.280176891E-1
1.088774150E1,1.929487610E-1,-5.328918457E-2,-1.282832336E-1,2.377510244E-1
1.089770950E1,1.368154907E-1,-4.056564331E-2,-4.969665527E-2,1.511085949E-1
1.090767750E1,7.604187012E-2,-3.921844482E-2,1.032852173E-2,8.618080289E-2
1.091764550E1,9.759704590E-2,-5.703140259E-2,2.649490356E-2,1.161023004E-1
1.092761350E1,1.149609375E-1,-4.251159668E-2,7.274871826E-2,1.425329050E-1
1.093758250E1,1.234931946E-1,-2.888992310E-2,7.424560547E-2,1.469612422E-1
1.094755050E1,7.964936829E-1,-4.430786133E-2,1.489402771E-1,8.115100613E-1
1.095751850E1,7.737409973E0,2.993774414E-1,2.028880920E0,8.004592290E0
1.096748650E1,3.058065720E1,3.592529297E-1,5.036726074E0,3.099474579E1
1.097745450E1,3.903896805E1,-6.023025055E0,6.893914032E0,4.009792897E1
1.098742250E1,3.223426849E1,-1.175325897E1,7.841443634E0,3.519482064E1
1.099739150E1,2.939587097E1,-1.004411316E1,9.348659363E0,3.244069776E1
1.100735950E1,2.647349808E1,-6.294859772E0,1.087952591E1,2.930589436E1
1.101732750E1,2.535158112E1,-3.546125793E0,9.970017242E0,2.747142000E1
1.102729550E1,2.861704056E1,-1.434766388E0,8.988657990E0,3.002981081E1
1.103726350E1,2.432411774E1,-2.550695801E-1,7.655530243E0,2.550166480E1
1.104723150E1,1.743229935E1,-1.932481384E-1,5.941145325E0,1.841791555E1
1.105719950E1,1.292352539E1,-4.131408691E-2,4.632416840E0,1.372874725E1
1.106716850E1,1.012659164E1,1.528321838E-1,3.477718048E0,1.070820895E1
1.107713650E1,7.429200897E0,-7.828720093E-2,2.821632385E0,7.947374672E0
1.108710450E1,5.489235077E0,6.780899048E-2,2.565814362E0,6.059678467E0
1.109707250E1,4.161346436E0,1.856140137E-1,2.356699219E0,4.785946921E0
1.110704050E1,3.045267334E0,5.119354248E-2,2.111359406E0,3.705956348E0
1.111700850E1,2.550246735E0,-7.050338745E-2,2.211501160E0,3.376309600E0
1.112697750E1,2.850372620E0,-1.785786438E-1,2.721340942E0,3.944896821E0
1.113694550E1,3.548071747E0,-4.005670166E-1,3.404370575E0,4.933457821E0
1.114691350E1,4.420008545E0,-7.060816956E-1,4.151616669E0,6.104993682E0
1.115688150E1,5.611680450E0,-9.395960999E-1,4.916226654E0,7.519513470E0
1.116684950E1,6.789730682E0,-1.185983734E0,5.082680511E0,8.563915071E0
1.117681750E1,7.926766205E0,-1.292113037E0,5.324427795E0,9.636011100E0
1.118678550E1,8.939560089E0,-1.308728485E0,5.636678467E0,1.064897408E1
1.119675450E1,9.862690430E0,-1.196761322E0,5.623356171E0,1.141608667E1
1.120672250E1,1.030427216E1,-1.014590149E0,5.530848541E0,1.173872665E1
1.121669050E1,9.874665527E0,-9.770182800E-1,5.034929810E0,1.112717854E1
1.122665850E1,9.014853516E0,-9.553134155E-1,4.576882324E0,1.015519864E1
1.123662650E1,8.429869995E0,-9.216334534E-1,4.330943756E0,9.522037081E0
1.124659450E1,7.962242432E0,-8.837622070E-1,4.035009155E0,8.969929713E0
1.125656350E1,7.460934906E0,-8.702902222E-1,3.752247162E0,8.396565578E0
1.126653150E1,6.829996948E0,-8.285270691E-1,3.497626648E0,7.718076677E0
1.127649950E1,6.377487946E0,-7.713459778E-1,3.332969055E0,7.237127181E0
1.128646750E1,6.090534668E0,-7.878117371E-1,3.407813416E0,7.023421684E0
1.129643550E1,6.154900818E0,-8.520281982E-1,3.708987122E0,7.236390094E0
1.130640350E1,6.742578735E0,-9.431886292E-1,4.362977142E0,8.086256386E0
1.131637150E1,7.679480438E0,-9.966275024E-1,5.092110901E0,9.268078528E0
1.132634050E1,8.610843658E0,-1.011746063E0,5.690267029E0,1.037060256E1
1.133630850E1,9.408834229E0,-9.870474243E-1,6.102809143E0,1.125809503E1
1.134627650E1,9.752519531E0,-9.202862549E-1,6.351891174E0,1.167497689E1
1.135624450E1,9.406888275E0,-8.032296753E-1,6.350843353E0,1.137839779E1
1.136621250E1,8.344248047E0,-7.146139526E-1,6.027964783E0,1.031860010E1
1.137618050E1,7.032675476E0,-7.863148499E-1,5.529052277E0,8.980380530E0
1.138614950E1,6.024671631E0,-9.000782776E-1,5.206024017E0,8.013082755E0
1.139611750E1,5.368585968E0,-9.261241150E-1,5.143005066E0,7.491990542E0
1.140608550E1,4.884193268E0,-8.291258240E-1,5.211861877E0,7.190709126E0
1.141605350E1,4.482728119E0,-6.819818115E-1,5.396278381E0,7.048387826E0
1.142602150E1,4.093537445E0,-6.026467896E-1,5.623655548E0,6.981814498E0
1.143598950E1,3.656296692E0,-6.072871399E-1,5.803880768E0,6.886387670E0
1.144595750E1,3.101101227E0,-6.259982300E-1,5.980962524E0,6.766137400E0
1.145592650E1,2.486629028E0,-6.363267517E-1,6.188131714E0,6.699343980E0
1.146589450E1,1.870659943E0,-6.839277649E-1,6.454128571E0,6.754472697E0
1.147586321E1,1.342408447E0,-6.941065979E-1,6.781348114E0,6.947699378E0
1.148583121E1,8.476872253E-1,-7.538323975E-1,7.085066528E0,7.175305194E0
1.149579921E1,4.712200928E-1,-8.783734131E-1,7.115303650E0,7.184784914E0
1.150576721E1,1.983375549E-1,-9.470805359E-1,6.843319244E0,6.911390425E0
1.151573621E1,-1.377136230E-2,-8.282276917E-1,6.459217987E0,6.512115460E0
1.152570421E1,-1.383123779E-1,-6.730004883E-1,6.090983734E0,6.129611963E0
1.153567221E1,-2.121089172E-1,-6.759942627E-1,5.744154968E0,5.787683020E0
1.154564021E1,-1.212478638E-2,-5.604345703E-1,5.483247528E0,5.511827045E0
1.155560821E1,5.361849976E-1,-3.558100891E-1,5.129233704E0,5.169442287E0
1.156557621E1,1.542841644E0,-3.520678711E-1,4.201912079E0,4.490030873E0
1.157554421E1,3.125799866E0,-2.844085693E-1,3.760330353E0,4.898121823E0
1.158551321E1,4.957540741E0,-2.606080627E-1,4.177961884E0,6.488489213E0
1.159548121E1,6.133944397E0,-8.707392883E-1,4.137994995E0,7.450265992E0
1.160544921E1,7.017257538E0,-1.626218262E0,3.769611053E0,8.129972736E0
1.161541721E1,8.443341980E0,-1.681154022E0,3.530707855E0,9.304955701E0
1.162538521E1,9.723030853E0,-1.313518524E0,4.165388031E0,1.065894541E1
1.163535321E1,1.133383118E1,-5.758525085E-1,5.308860168E0,1.252882004E1
1.164532221E1,1.346644638E1,-3.156935120E-1,4.960684204E0,1.435455427E1
1.165529021E1,1.473775269E1,-4.261637878E-1,4.983885956E0,1.556348576E1
1.166525821E1,1.680794769E1,-9.340576172E-2,5.556894379E0,1.770296318E1
1.167522621E1,2.235511230E1,9.939331055E-1,6.068979492E0,2.318558736E1
1.168519421E1,3.028412384E1,3.484903107E0,4.949008484E0,3.088309232E1
1.169516221E1,3.672702576E1,4.815486145E0,3.884871368E0,3.724453723E1
1.170513021E1,3.582694748E1,-4.197271729E-1,2.501148834E0,3.591659898E1
1.171509921E1,2.714545074E1,-6.068530426E0,5.283113708E0,2.831278595E1
1.172506721E1,2.331356918E1,-6.676865387E0,1.218256622E1,2.713886437E1
1.173503521E1,2.494742157E1,-6.048023071E0,1.940280167E1,3.217796045E1
1.174500321E1,2.779285446E1,-5.446723480E0,2.400408325E1,3.712553796E1
1.175497121E1,3.063349731E1,-5.356012115E0,2.575065125E1,4.037566177E1
1.176493921E1,3.425581467E1,-5.179529114E0,2.990256729E1,4.576518208E1
1.177490821E1,3.796614899E1,-5.290298767E0,3.644231781E1,5.289100356E1
1.178487621E1,3.973666718E1,-4.386178894E0,3.883090073E1,5.573221810E1
1.179484421E1,3.708463211E1,-2.807411957E0,3.643662964E1,5.206514650E1
1.180481221E1,3.006063858E1,-2.231709137E0,2.839834534E1,4.141362741E1
1.181478021E1,2.312556015E1,-2.412982178E0,2.039329193E1,3.092734019E1
1.182474821E1,1.933214859E1,-2.189347229E0,1.696811462E1,2.581554036E1
1.183471621E1,1.696227676E1,-1.774260406E0,1.480122070E1,2.258191682E1
1.184468521E1,1.427760956E1,-1.426234131E0,1.320449112E1,1.949981703E1
1.185465321E1,1.180999100E1,-1.213676147E0,1.154279663E1,1.655853409E1
1.186462121E1,9.940827942E0,-1.194815369E0,9.685309296E0,1.393028571E1
1.187458921E1,8.332272949E0,-1.136736145E0,8.083939362E0,1.166486250E1
1.188455721E1,6.578519897E0,-9.138496399E-1,6.660399628E0,9.406007038E0
1.189452521E1,4.468956757E0,-8.190966797E-1,5.511538696E0,7.142797258E0
1.190449421E1,2.174528046E0,-7.822732544E-1,4.215533752E0,4.807415988E0
1.191446221E1,8.113128662E-2,-6.938072205E-1,3.115621033E0,3.192968081E0
1.192443021E1,-1.539249115E0,-5.379812622E-1,2.428549805E0,2.925160821E0
1.193439821E1,-2.737657013E0,-3.716770935E-1,1.931433563E0,3.370956154E0
1.194436621E1,-3.797004089E0,-1.329235840E-1,1.614542542E0,4.128154110E0
1.195433421E1,-5.536536713E0,-5.551954651E-1,1.773212585E0,5.840014011E0
1.196430221E1,-6.754553833E0,-1.188827820E0,2.156415710E0,7.189397595E0
1.197427121E1,-6.786587219E0,-1.639989624E0,3.332070923E0,7.736280029E0
1.198423921E1,-8.032296753E0,-2.108964386E0,5.973328400E0,1.022967126E1
1.199420721E1,-9.521100769E0,-2.564167786E0,7.892337799E0,1.262993714E1
1.200417521E1,-9.892927551E0,-2.579286346E0,8.494385834E0,1.329200227E1
1.201414321E1,-9.380692749E0,-2.123484192E0,6.822512512E0,1.179208457E1
1.202411121E1,-8.995393982E0,-1.588496704E0,5.685626678E0,1.075949745E1
1.203408021E1,-8.420439606E0,-9.633966064E-1,5.316643982E0,1.000493075E1
1.204404821E1,-7.354805603E0,-2.504292297E-1,5.064568176E0,8.933405346E0
1.205401621E1,-6.155798950E0,1.947450256E-1,4.799768829E0,7.808301170E0
1.206398421E1,-4.974156189E0,3.725752258E-1,4.194577332E0,6.517324687E0
1.207395221E1,-4.084107056E0,3.875440979E-1,3.388204193E0,5.320718798E0
1.208392021E1,-3.378474426E0,3.570075989E-1,2.438728638E0,4.181978150E0
1.209388921E1,-2.787353668E0,3.035687256E-1,1.603914642E0,3.230175943E0
1.210385721E1,-2.332000580E0,2.242337036E-1,1.015338593E0,2.553315475E0
1.211382521E1,-1.883832550E0,2.365081787E-1,5.183720398E-1,1.968113505E0
1.212379321E1,-1.448687439E0,2.258802795E-1,2.088157654E-1,1.480986570E0
1.213376121E1,-1.150357819E0,2.715353394E-1,8.217910767E-2,1.184824019E0
1.214372921E1,-9.645941162E-1,3.125500488E-1,3.996688843E-2,1.014754499E0
1.215369821E1,-9.235794067E-1,3.394940186E-1,-1.390608215E-1,9.937771487E-1
1.216366621E1,-1.122665405E0,3.385958862E-1,-1.529818726E0,1.927529538E0
1.217363421E1,-1.263672180E0,2.507286072E-1,-2.465672607E0,2.781955000E0
1.218360221E1,-1.299148407E0,1.766326904E-2,-2.931204529E0,3.206253041E0
1.219357021E1,-1.140628052E0,-1.305285645E-1,-2.987038422E0,3.200073216E0
1.220353821E1,-9.288185120E-1,-1.363664246E-1,-2.907104645E0,3.054923411E0
1.221350721E1,-7.238946533E-1,-2.948867798E-2,-2.495909729E0,2.598934094E0
1.222347521E1,-4.291575623E-1,1.520837402E-1,-2.324965210E0,2.369128301E0
1.223344321E1,-1.722917175E-1,2.011816406E-1,-2.420616302E0,2.435065045E0
1.224341121E1,-6.975494385E-2,1.059796143E-1,-2.374512177E0,2.377899390E0
1.225337921E1,5.912704468E-2,6.286926270E-3,-2.276765442E0,2.277541747E0
1.226334721E1,1.956431580E-1,8.277786255E-2,-2.299667816E0,2.309458916E0
1.227331521E1,2.609074402E-1,1.649569702E-1,-2.335892487E0,2.356199738E0
1.228328421E1,2.228865051E-1,2.330653381E-1,-2.312541046E0,2.334918400E0
1.229325221E1,5.403762817E-2,2.303709412E-1,-2.156864777E0,2.169805637E0
1.230322021E1,-1.535806274E-1,1.736389160E-1,-1.847458191E0,1.861945018E0
1.231318821E1,-2.481838989E-1,1.233435059E-1,-1.437311096E0,1.463786889E0
1.232315621E1,-1.703457642E-1,1.085243225E-1,-1.111438751E0,1.129642114E0
1.233312421E1,-4.685256958E-2,9.774673462E-2,-9.559121704E-1,9.620382866E-1
1.234309321E1,1.948947144E-1,9.250762939E-2,-8.536747742E-1,8.805124822E-1
1.235306121E1,3.713777161E-1,-2.245330811E-2,-7.192543030E-1,8.097853490E-1
1.236302921E1,4.131408691E-1,-1.276844788E-1,-6.218069458E-1,7.573853588E-1
1.237299721E1,5.894741821E-1,-1.190025330E-1,-6.038442993E-1,8.522143815E-1
1.238296521E1,9.500743103E-1,-2.514770508E-2,-7.161108398E-1,1.189995100E0
1.239293321E1,1.570983124E0,8.876541138E-2,-8.961863708E-1,1.810805700E0
1.240290221E1,3.567830658E0,3.143463135E-2,-1.278940430E0,3.790262836E0
1.241287021E1,1.286260208E1,-1.901046753E-1,-3.350632324E0,1.329320913E1
1.242283821E1,3.218741592E1,1.076860657E0,-5.740412750E0,3.271302052E1
1.243280621E1,6.425882309E1,-6.930587769E-2,6.298452301E0,6.456679990E1
1.244277421E1,9.747714523E1,-1.142918289E1,4.939907410E1,1.098757871E2
1.245274221E1,8.916313431E1,5.685177612E-1,5.468997162E1,1.046010551E2
1.246271121E1,6.256883743E1,2.672692108E0,2.960708176E1,6.927179795E1
1.247267908E1,5.265001373E1,-1.996398468E0,3.986001068E1,6.606686011E1
1.248264708E1,4.172603027E1,-3.136727142E0,3.465817795E1,5.433313867E1
1.249261508E1,2.734753052E1,-2.556383972E0,1.993958542E1,3.394126679E1
1.250258308E1,1.665661240E1,-2.126178589E0,1.287637344E1,2.116044340E1
1.251255108E1,1.054646851E1,-2.012564850E0,6.321953430E0,1.245975563E1
1.252251908E1,6.629264374E0,-1.367556152E0,1.362317047E0,6.904582804E0
1.253248808E1,3.504362640E0,-7.125183105E-1,-6.716532898E0,7.609208502E0
1.254245608E1,1.463656311E0,-2.538720703E-1,-1.419857391E1,1.427607236E1
1.255242408E1,1.857637024E-1,-9.116043091E-1,-6.913074188E0,6.975394276E0
1.256239208E1,6.224057007E-1,-4.224215698E-1,-1.068178711E0,1.306458800E0
1.257236008E1,9.705816650E-1,2.424957275E-2,-3.125500488E-1,1.019953108E0
1.258232808E1,1.216969299E0,2.377056885E-1,2.758763123E-1,1.270285798E0
1.259229708E1,1.111738129E0,1.796264648E-1,2.996768188E-1,1.165346957E0
1.260226508E1,8.072712708E-1,-3.128494263E-2,2.133064270E-1,8.355628546E-1
1.261223308E1,9.318122864E-1,-5.059478760E-2,2.481838989E-1,9.656237452E-1
1.262220108E1,1.179696808E0,3.712280273E-2,1.667532349E-1,1.192002224E0
1.263216908E1,1.170865173E0,1.811233521E-2,5.388793945E-3,1.171017656E0
1.264213708E1,4.219725037E-1,2.844085693E-2,-1.480421448E-1,4.480916790E-1
1.265210608E1,-8.839118958E-1,1.830693054E-1,1.751358032E-2,9.028407033E-1
1.266207408E1,-2.804717560E0,1.339714050E-1,2.498304749E-1,2.819007661E0
1.267204208E1,-9.372010803E0,-7.249424744E-1,7.620652771E-1,9.430846811E0
1.268201008E1,-1.298968781E1,-1.972747650E0,2.937790833E0,1.346307311E1
1.269197808E1,-5.728437653E0,-1.048868866E0,6.730453949E0,8.900232255E0
1.270194608E1,7.499404907E-2,2.309696960E-1,7.777077484E0,7.780867902E0
1.271191508E1,7.252418518E-1,-1.056802368E-1,5.611680450E0,5.659337553E0
1.272188308E1,6.185137939E-1,-5.830375671E-1,3.132086792E0,3.245375139E0
1.273185108E1,1.296154633E0,-5.529501343E-1,1.740131378E0,2.239157854E0
1.274181908E1,2.054477692E0,-4.007167053E-1,1.173559570E0,2.399728011E0
1.275178708E1,2.683918762E0,-4.364923096E-1,7.372169495E-1,2.817345256E0
1.276175508E1,2.966830444E0,-2.872526550E-1,2.932402039E-1,2.995093787E0
1.277172408E1,3.014581146E0,1.347198486E-2,2.395019531E-2,3.014706386E0
1.278169208E1,3.239114227E0,1.859133911E-1,2.544708252E-1,3.254409342E0
1.279166008E1,5.294789429E0,1.637594604E-1,1.252146149E0,5.443297000E0
1.280162808E1,8.906628571E0,-7.319778442E-2,2.120939484E0,9.155969348E0
1.281159608E1,1.098206268E1,-4.652325439E-1,2.910547485E0,1.137072684E1
1.282156408E1,1.233854187E1,-1.453028412E0,3.176993408E0,1.282357962E1
1.283153308E1,1.352048401E1,-2.727029114E0,3.755839691E0,1.429498190E1
1.284150108E1,1.470916214E1,-3.571273499E0,4.319417725E0,1.574073743E1
1.285146908E1,1.568378540E1,-3.734883270E0,5.882317657E0,1.716193866E1
1.286143708E1,1.666843781E1,-3.487747192E0,8.332572327E0,1.895871728E1
1.287140508E1,1.693308746E1,-2.726729736E0,9.536967773E0,1.962443019E1
1.288137308E1,1.376297974E1,-2.202669525E0,9.218430176E0,1.671079948E1
1.289134208E1,9.078022156E0,-2.011367340E0,7.857310638E0,1.217347179E1
1.290131008E1,5.851481781E0,-1.655257874E0,6.099665680E0,8.613108560E0
1.291127808E1,4.086651764E0,-1.074315948E0,4.437372437E0,6.127409855E0
1.292124608E1,3.595223694E0,-3.367996216E-1,2.660267944E0,4.485096758E0
1.293121408E1,3.590733032E0,3.619473267E-1,1.421294403E0,3.878717231E0
1.294118208E1,3.427572327E0,7.451504517E-1,8.674461365E-1,3.613303758E0
1.295115108E1,3.584446106E0,1.062041473E0,3.333567810E-1,3.753306905E0
1.296111908E1,4.701273651E0,1.498982849E0,-6.691085815E-2,4.934916472E0
1.297108708E1,6.857389984E0,1.796713715E0,1.366658020E-1,7.090180189E0
1.298105508E1,8.516839142E0,1.288370819E0,7.300318909E-1,8.644616527E0
1.299102308E1,1.146136597E1,8.943901062E-1,3.927832031E-1,1.150291798E1
1.300099108E1,1.541898605E1,2.903961182E-1,1.552870789E0,1.549970543E1
1.301096008E1,2.048220703E1,1.564247131E-1,3.865112457E0,2.084428862E1
1.302092808E1,2.605511810E1,7.798782349E-2,6.237828369E0,2.679152411E1
1.303089608E1,3.101670044E1,3.638932800E-1,4.766088867E0,3.138285722E1
1.304086408E1,3.723731461E1,4.708159332E0,4.977000275E0,3.786231497E1
1.305083208E1,4.491604660E1,9.602531433E0,4.166884918E0,4.611965722E1
1.306080008E1,4.655858093E1,4.968917084E0,6.240522766E-1,4.682713996E1
1.307076808E1,4.313849304E1,-8.129594421E-1,1.689985657E-1,4.314648358E1
1.308073708E1,4.100123749E1,-3.873495026E0,3.694317627E-1,4.118545762E1
1.309070508E1,4.183739868E1,-5.609435120E0,-2.818638611E-1,4.221271299E1
1.310067308E1,4.397615112E1,-6.150260468E0,-1.555265808E-1,4.440441149E1
1.311064108E1,4.572735947E1,-6.121071167E0,5.562432861E-1,4.613857738E1
1.312060908E1,4.577825363E1,-5.238207092E0,1.858385468E0,4.611443283E1
1.313057708E1,3.988006897E1,-4.096830597E0,2.650238800E0,4.017745248E1
1.314054608E1,3.197096603E1,-2.984793091E0,3.420237579E0,3.229163489E1
1.315051408E1,2.677556992E1,-1.857637024E0,2.557731171E0,2.696152719E1
1.316048208E1,2.342314133E1,-7.963439941E-1,2.317331085E0,2.355096042E1
1.317045008E1,1.934726715E1,-1.060095520E0,2.492017822E0,1.953588241E1
1.318041808E1,1.598465973E1,-1.432820435E0,2.238594818E0,1.620412379E1
1.319038608E1,1.339863739E1,-1.425335999E0,2.703378296E0,1.374275521E1
1.320035508E1,1.076456497E1,-1.282383270E0,3.010240173E0,1.125086271E1
1.321032308E1,8.050558777E0,-1.021176453E0,2.645149384E0,8.535286359E0
1.322029108E1,5.502407684E0,-7.613168335E-1,3.016227722E0,6.320895769E0
1.323025908E1,2.777623901E0,-1.144669647E0,4.540358276E0,5.444292095E0
1.324022708E1,4.589456177E-1,-1.454375610E0,6.033353577E0,6.223117778E0
1.325019508E1,-1.453926544E0,-1.437610474E0,7.015161896E0,7.307059784E0
1.326016408E1,-3.149750061E0,-1.382974091E0,7.735314331E0,8.465732726E0
1.327013208E1,-4.870571594E0,-1.619182892E0,9.308542786E0,1.062982548E1
1.328010008E1,-6.693181458E0,-1.708397369E0,1.018347336E1,1.230530086E1
1.329006808E1,-8.209977264E0,-1.732646942E0,1.108280319E1,1.390087475E1
1.330003608E1,-9.739795990E0,-2.043849792E0,1.077953384E1,1.467103602E1
1.331000408E1,-9.948312378E0,-1.460662537E0,6.128555603E0,1.177546806E1
1.331997308E1,-9.623787231E0,-6.042933655E-1,2.337838440E0,9.922093515E0
1.332994108E1,-8.674760742E0,3.622467041E-2,1.595681763E-1,8.676303831E0
1.333990908E1,-7.173532562E0,3.734733582E-1,-9.888436890E-1,7.250990526E0
1.334987708E1,-5.771697693E0,2.662962341E-1,-1.416204987E0,5.948869179E0
1.335984508E1,-4.695585480E0,1.501377869E-1,-1.234033813E0,4.857355639E0
1.336981308E1,-3.344644775E0,-8.083190918E-3,-9.569599915E-1,3.478862808E0
1.337978208E1,-2.445913696E0,3.293151855E-3,-4.703219604E-1,2.490724272E0
1.338975008E1,-2.117945709E0,1.315763855E-1,-9.430389404E-3,2.122049788E0
1.339971808E1,-1.803898773E0,2.716850281E-1,1.190025330E-1,1.828120658E0
1.340968608E1,-1.436263275E0,1.282832336E-1,2.594105530E-1,1.465128874E0
1.341965408E1,-1.381477203E0,-4.101470947E-2,3.646417236E-1,1.429379256E0
1.342962208E1,-1.555265808E0,-5.822891235E-2,3.489244080E-1,1.594989211E0
1.343959108E1,-1.706002350E0,-2.829116821E-2,2.887495422E-1,1.730497242E0
1.344955908E1,-1.719025269E0,4.730163574E-2,3.613485718E-1,1.757230238E0
1.345952708E1,-1.644779663E0,1.908531189E-1,3.947291565E-1,1.702215075E0
1.346949508E1,-1.617087250E0,3.135978699E-1,2.188449097E-1,1.661688266E0
1.347946262E1,-1.646426239E0,3.809577942E-1,1.916015625E-2,1.690034116E0
1.348943062E1,-1.733545074E0,4.320016479E-1,-1.908531189E-1,1.796727264E0
1.349939963E1,-1.906285858E0,4.836442566E-1,-4.384382629E-1,2.014960459E0
1.350936763E1,-2.101779327E0,4.840933228E-1,-5.873785400E-1,2.235360426E0
1.351933563E1,-2.244582367E0,4.903802490E-1,-7.243437195E-1,2.409003241E0
1.352930363E1,-2.216141510E0,5.002597046E-1,-8.324189758E-1,2.419600032E0
1.353927163E1,-2.168390808E0,4.936734009E-1,-9.246272278E-1,2.408436761E0
1.354923963E1,-2.086062012E0,4.731660461E-1,-9.957293701E-1,2.359452861E0
1.355920862E1,-1.900148621E0,4.472698975E-1,-1.087189178E0,2.234411657E0
1.356917662E1,-1.624721375E0,4.941224670E-1,-1.122366028E0,2.035579047E0
1.357914462E1,-1.383722534E0,5.664221191E-1,-1.062041473E0,1.833972235E0
1.358911262E1,-1.175954590E0,6.200106812E-1,-9.250762939E-1,1.619582845E0
1.359908062E1,-9.937834167E-1,6.658154297E-1,-7.587721252E-1,1.416563025E0
1.360904862E1,-8.716374207E-1,6.319857788E-1,-6.264472961E-1,1.245629974E0
1.361901763E1,-8.279283142E-1,5.137316895E-1,-5.111869812E-1,1.100317078E0
1.362898563E1,-8.858578491E-1,3.842509460E-1,-3.420387268E-1,1.024394167E0
1.363895363E1,-8.714877319E-1,2.185455322E-1,-1.833686829E-1,9.169935062E-1
1.364892163E1,-8.138575745E-1,1.031355286E-1,-4.116439819E-2,8.213985613E-1
1.365888963E1,-7.162605286E-1,5.254074097E-2,8.786727905E-2,7.235401392E-1
1.366885763E1,-6.825805664E-1,-1.047821045E-2,1.113684082E-1,6.916855824E-1
1.367882662E1,-7.255412292E-1,-9.924362183E-2,-9.205856323E-2,7.380610753E-1
1.368879462E1,-7.604187012E-1,-1.495390320E-1,-3.227288818E-1,8.394953570E-1
1.369876262E1,-3.963757324E-1,-1.833686829E-1,-6.096821594E-1,7.499667530E-1
1.370873062E1,1.181942139E0,-9.984237671E-2,-8.958869934E-1,1.486461982E0
1.371869862E1,1.123877884E1,2.639012146E-1,1.960323486E0,1.141151444E1
1.372866662E1,5.937882111E1,-3.536845093E0,1.038570282E1,6.038390922E1
1.373863563E1,9.660251404E1,-1.852248230E1,2.318468719E1,1.010576953E2
1.374860363E1,9.251930511E1,-8.053103485E0,1.272937912E1,9.373745989E1
1.375857163E1,1.014917967E2,-6.449188843E0,5.924380188E0,1.018689114E2
1.376853963E1,7.342770630E1,-2.615211639E0,5.644013214E0,7.369072038E1
1.377850763E1,4.929788452E1,-4.216731262E-1,9.840536499E-1,4.930950809E1
1.378847563E1,3.766317902E1,1.917512512E-1,-1.060843964E0,3.767860417E1
1.379844462E1,2.470118362E1,-7.068301392E-1,-2.060614929E0,2.479706062E1
1.380841262E1,1.533950134E1,-7.791297913E-1,-4.538711700E0,1.601584367E1
1.381838062E1,1.035187317E1,-5.798941040E-1,-5.772745514E0,1.186685072E1
1.382834862E1,5.995482330E0,3.143463135E-3,-6.088289337E0,8.544769471E0
1.383831662E1,-5.893544312E0,1.148411865E0,-8.279283142E-1,6.061202823E0
1.384828462E1,-1.258597733E1,1.571731567E0,-6.177803192E0,1.410823935E1
1.385825363E1,-2.693947906E0,1.108295288E0,-1.441023376E1,1.470171796E1
1.386822163E1,-2.301464081E0,1.239422607E-1,-1.458971054E1,1.477063818E1
1.387818963E1,-2.440225525E0,-4.213737488E-1,-9.287885742E0,9.612339882E0
1.388815763E1,-2.017654266E0,-3.272195435E-1,-4.648882599E0,5.078396478E0
1.389812563E1,-1.389410706E0,-3.474275208E-1,-2.211351471E0,2.634623943E0
1.390809363E1,-1.141975250E0,-2.237846375E-1,-1.076411591E0,1.585196817E0
1.391806262E1,-1.132694550E0,-7.948471069E-2,-7.095245361E-1,1.338932347E0
1.392803062E1,-1.344803467E0,-8.232879639E-3,-5.194198608E-1,1.441652225E0
1.393799862E1,-1.559906158E0,-4.834945679E-2,-5.192701721E-1,1.644775488E0
1.394796662E1,-1.655706940E0,-2.128573608E-1,-5.580395508E-1,1.760136889E0
1.395793462E1,-1.349892883E0,-3.323089600E-1,-4.233197021E-1,1.453216987E0
1.396790363E1,-4.159849548E-1,-2.008822632E-1,-2.526745605E-1,5.265373680E-1
1.397787163E1,2.918930054E-1,-4.490661621E-2,-8.307723999E-2,3.067897628E-1
1.398783963E1,7.135661316E-1,-5.972579956E-2,2.342628479E-1,7.534075107E-1
1.399780763E1,1.144519958E0,-1.633103943E-1,6.027964783E-1,1.303825071E0
1.400777563E1,1.806742859E0,-1.962419128E-1,1.036744080E0,2.092287966E0
1.401774363E1,3.304827576E0,-2.484832764E-2,2.128872986E0,3.931234276E0
1.402771262E1,5.775888977E0,4.128414917E-1,4.429289246E0,7.290400181E0
1.403768062E1,8.304730225E0,5.194198608E-1,6.625522156E0,1.063653538E1
1.404764862E1,1.081860260E1,1.806742859E-1,7.278913422E0,1.304060528E1
1.405761662E1,1.326227097E1,1.678010559E-1,6.358327789E0,1.470864782E1
1.406758462E1,1.490959534E1,-1.950444031E-1,5.389841766E0,1.585510863E1
1.407755262E1,1.667637131E1,-5.072950745E-1,4.755760345E0,1.734865887E1
1.408752163E1,1.807790680E1,-5.203179932E-1,4.859045563E0,1.872676611E1
1.409748963E1,1.741224106E1,-6.020480347E-1,5.045707397E0,1.813857116E1
1.410745763E1,1.350581451E1,-1.049168243E0,4.634961548E0,1.431749448E1
1.411742563E1,9.414672089E0,-1.544338531E0,4.514462128E0,1.055468618E1
1.412739363E1,6.716532898E0,-1.895657959E0,4.792733459E0,8.466145952E0
1.413736163E1,4.741390228E0,-2.089654541E0,4.861290894E0,7.104898771E0
1.414733062E1,3.275039520E0,-2.067500610E0,4.566104736E0,5.987466501E0
1.415729862E1,2.049837341E0,-1.985022125E0,4.267326050E0,5.133441105E0
1.416726662E1,9.312135315E-1,-1.927391968E0,4.112697601E0,4.636408092E0
1.417723462E1,-5.568420410E-2,-1.778900757E0,4.064048767E0,4.436674545E0
1.418720262E1,-7.035369873E-1,-1.476679230E0,4.198918304E0,4.506269052E0
1.419717062E1,-1.051263885E0,-1.170565796E0,4.552932129E0,4.817112310E0
1.420713963E1,-1.216520233E0,-9.213340759E-1,5.317392426E0,5.532037614E0
1.421710763E1,-5.331912231E-1,-6.367758179E-1,5.926625519E0,5.984535601E0
1.422707563E1,1.153201904E0,-1.805245972E-1,5.388943634E0,5.513907621E0
1.423704363E1,2.853815460E0,4.089495850E-1,4.381089478E0,5.244563610E0
1.424701163E1,4.640799408E0,7.084767151E-1,3.052901459E0,5.599925510E0
1.425697963E1,5.466332703E0,5.352868652E-1,1.801054688E0,5.780235569E0
1.426694862E1,6.707701263E0,6.339317322E-1,1.593436432E0,6.923450393E0
1.427691662E1,8.857231293E0,9.487271118E-1,2.429597626E0,9.233286193E0
1.428688462E1,1.045979874E1,6.608757019E-1,3.778292999E0,1.114089962E1
1.429685262E1,1.233225494E1,7.993377686E-1,4.503235474E0,1.315304461E1
1.430682062E1,1.485121674E1,1.279988251E0,4.979844360E0,1.571610188E1
1.431678862E1,1.739577530E1,8.792715454E-1,5.411247253E0,1.823918073E1
1.432675763E1,2.023896286E1,6.029461670E-1,6.308631134E0,2.120796993E1
1.433672563E1,2.199032089E1,6.620732117E-1,5.034331055E0,2.256893979E1
1.434669363E1,2.435255859E1,2.039209442E0,2.638413391E0,2.457980290E1
1.435666163E1,2.836661133E1,4.764591980E0,4.888534241E0,2.917642442E1
1.436662963E1,2.966231689E1,4.308640137E0,6.945556641E0,3.076781078E1
1.437659862E1,2.832709351E1,3.707789612E-1,6.105802917E0,2.898003680E1
1.438656662E1,2.949900650E1,-3.253933411E0,6.738686829E0,3.043335945E1
1.439653462E1,3.437451782E1,-5.348228302E0,1.074136322E1,3.640862405E1
1.440650262E1,4.154296097E1,-6.266568604E0,1.494836472E1,4.459306107E1
1.441647062E1,4.765205704E1,-6.336772614E0,1.701646408E1,5.099444359E1
1.442643862E1,5.001728851E1,-6.313570862E0,1.674792252E1,5.312328337E1
1.443640763E1,4.845723267E1,-5.170547791E0,1.555205933E1,5.115373409E1
1.444637563E1,4.318564499E1,-2.633623352E0,1.496842300E1,4.578197890E1
1.445634363E1,3.603381729E1,-3.468287659E-1,1.515912643E1,3.909418618E1
1.446631163E1,3.019281372E1,6.328839111E-1,1.424168427E1,3.338910171E1
1.447628025E1,2.554662552E1,2.396516418E-1,1.267444336E1,2.851892394E1
1.448624825E1,2.251018982E1,-8.411009216E-1,1.010324020E1,2.468788284E1
1.449621725E1,2.078697327E1,-1.773811340E0,8.245303802E0,2.243278179E1
1.450618525E1,1.939247314E1,-1.789678345E0,6.574777679E0,2.055477231E1
1.451615325E1,1.773167679E1,-1.400487671E0,4.766837311E0,1.841457209E1
1.452612125E1,1.507260635E1,-1.373693390E0,3.111729126E0,1.545164567E1
1.453608925E1,1.204934326E1,-1.419049072E0,2.244133301E0,1.233841593E1
1.454605725E1,8.897198181E0,-1.634151764E0,1.937121735E0,9.251109559E0
1.455602625E1,5.980214081E0,-1.556762695E0,1.716330872E0,6.413443864E0
1.456599425E1,3.157683563E0,-1.391805725E0,1.591640167E0,3.800185138E0
1.457596225E1,4.680766296E-1,-1.347348175E0,1.483564911E0,2.058010612E0
1.458593025E1,-1.634600830E0,-1.337319031E0,1.472787323E0,2.574770779E0
1.459589825E1,-2.737207947E0,-1.048120422E0,1.726809082E0,3.401872039E0
1.460586625E1,-3.802542572E0,-1.294358368E0,2.262694702E0,4.610258226E0
1.461583525E1,-5.289849701E0,-2.098037109E0,3.132835236E0,6.496070057E0
1.462580325E1,-6.552773438E0,-2.853216705E0,3.848497009E0,8.117303402E0
1.463577125E1,-7.282206573E0,-3.781137085E0,4.544100494E0,9.379572460E0
1.464573925E1,-7.420968018E0,-4.402045898E0,5.245990906E0,1.009797975E1
1.465570725E1,-7.379354553E0,-4.479434967E0,6.673422546E0,1.091122265E1
1.466567525E1,-8.685538330E0,-4.445605316E0,9.397457886E0,1.354674121E1
1.467564425E1,-1.054706726E1,-4.835095367E0,1.122815094E1,1.614590191E1
1.468561225E1,-1.090497299E1,-4.326902161E0,1.025981461E1,1.558538784E1
1.469558025E1,-1.041983185E1,-2.945125580E0,7.686366119E0,1.327881337E1
1.470554825E1,-9.250912628E0,-1.633403320E0,6.231541443E0,1.127295434E1
1.471551625E1,-7.614365845E0,-5.337899780E-1,4.982389069E0,9.115245460E0
1.472548525E1,-5.533842316E0,2.426454163E-1,3.293002167E0,6.444078743E0
1.473545325E1,-3.946692810E0,5.837860107E-1,1.325343933E0,4.204013176E0
1.474542125E1,-2.999761963E0,5.878276062E-1,-3.876937866E-2,3.057060057E0
1.475538925E1,-2.092947693E0,6.219566345E-1,-8.652008057E-1,2.348580962E0
1.476535725E1,-1.240620117E0,7.268884277E-1,-1.455273743E0,2.045807109E0
1.477532525E1,-7.722441101E-1,5.918692017E-1,-1.811682587E0,2.056420169E0
1.478529425E1,-7.626640320E-1,2.950364685E-1,-1.969604187E0,2.132614264E0
1.479526225E1,-9.436376953E-1,1.916015625E-1,-1.910177765E0,2.139145239E0
1.480523025E1,-1.001417542E0,2.468367004E-1,-1.631457367E0,1.930134345E0
1.481519825E1,-9.300160217E-1,3.924838257E-1,-1.294957123E0,1.641915742E0
1.482516625E1,-8.394543457E-1,5.483097839E-1,-9.123527527E-1,1.355623385E0
1.483513525E1,-7.604187012E-1,6.644682312E-1,-5.971083069E-1,1.173155131E0
1.484510325E1,-6.837780762E-1,7.620652771E-1,-4.592449951E-1,1.122141662E0
1.485507125E1,-7.092251587E-1,8.399034119E-1,-5.662724304E-1,1.236568855E0
1.486503925E1,-7.970924377E-1,8.713380432E-1,-7.453001404E-1,1.396445000E0
1.487500725E1,-8.827143860E-1,8.524772644E-1,-9.394464111E-1,1.545464892E0
1.488497525E1,-1.028511200E0,7.767347717E-1,-1.116827545E0,1.705419585E0
1.489494425E1,-1.170715485E0,6.857240295E-1,-1.221160583E0,1.825383620E0
1.490491225E1,-1.213975525E0,6.598278809E-1,-1.306782532E0,1.901786001E0
1.491488025E1,-1.164727936E0,7.217990112E-1,-1.277144165E0,1.873147670E0
1.492484825E1,-1.079854431E0,7.304809570E-1,-1.182840271E0,1.760340628E0
1.493481625E1,-9.867480469E-1,6.824308777E-1,-9.425898743E-1,1.525732376E0
1.494478425E1,-8.467890930E-1,6.424639893E-1,-5.842350769E-1,1.212906580E0
1.495475325E1,-6.954537964E-1,6.322851562E-1,-2.734812927E-1,9.788935178E-1
1.496472125E1,-5.182223511E-1,6.325845337E-1,-4.924758911E-2,8.192331307E-1
1.497468925E1,-2.944377136E-1,6.007008362E-1,2.769241333E-2,6.695535315E-1
1.498465725E1,-5.718109131E-2,5.614823914E-1,1.661544800E-2,5.646310531E-1
1.499462525E1,8.277786255E-2,4.903802490E-1,-4.311035156E-2,4.991827978E-1
1.500459325E1,1.308279419E-1,4.394860840E-1,-1.782792664E-1,4.919831961E-1
1.501456225E1,1.246907043E-1,3.878434753E-1,-2.698887634E-1,4.886821848E-1
1.502453025E1,1.246907043E-1,3.423381042E-1,-3.360511780E-1,4.956546616E-1
1.503449825E1,9.849517822E-2,3.288661194E-1,-4.698728943E-1,5.819233295E-1
1.504446625E1,8.038284302E-2,3.089575195E-1,-7.482939148E-1,8.135477449E-1
1.505443425E1,2.035766602E-2,2.823129272E-1,-1.017733612E0,1.056360132E0
1.506440325E1,-6.735992432E-3,2.496807861E-1,-9.614506531E-1,9.933645992E-1
1.507437125E1,1.386117554E-1,1.616638184E-1,-7.705975342E-1,7.994804366E-1
1.508433925E1,1.024918671E0,1.661544800E-1,-8.059240723E-1,1.314374073E0
1.509430725E1,4.223018188E0,4.478686523E-1,-1.556912384E0,4.523101273E0
1.510427525E1,1.963347198E1,3.420686646E0,1.363215179E0,1.997580224E1
1.511424325E1,9.028969162E1,1.296454010E0,2.223176880E1,9.299548779E1
1.512421225E1,8.384125122E1,-1.958811630E1,3.244308426E1,9.200871384E1
1.513418025E1,8.305209229E1,-2.005768982E1,3.499722290E1,9.232966243E1
1.514414825E1,9.922820389E1,-1.749486923E1,3.312521576E1,1.060640694E2
1.515411625E1,8.483802841E1,-1.122276215E1,2.064177521E1,8.803138269E1
1.516408425E1,5.395035965E1,-6.447542267E0,5.069358215E0,5.457023456E1
1.517405225E1,3.466656052E1,-3.942052460E0,2.521955566E0,3.498100135E1
1.518402125E1,2.255135422E1,-3.116519165E0,9.589059448E-1,2.278586776E1
1.519398925E1,1.438224197E1,-2.193538513E0,-1.020128632E0,1.458427776E1
1.520395725E1,8.395142212E0,-1.211580505E0,-2.245480499E0,8.774310386E0
1.521392525E1,3.609593811E0,-1.215921478E0,-3.655997314E0,5.279578476E0
1.522389325E1,4.905299377E-1,-1.120719452E0,-3.602259064E0,3.804326757E0
1.523386125E1,-9.943821716E-1,-3.610491943E-1,-3.526067505E0,3.681345470E0
1.524383025E1,-1.794169006E0,2.589614868E-1,-3.459306335E0,3.905496613E0
1.525379825E1,-3.227288818E0,5.349874878E-1,-2.582579498E0,4.167891745E0
1.526376625E1,-1.051772827E1,3.430266724E0,-3.408412170E-1,1.106822075E1
1.527373425E1,-1.179068115E1,2.724484406E0,-4.546495514E0,1.292724250E1
1.528370225E1,-8.220455475E0,4.974156189E-1,-6.631509705E0,1.057356286E1
1.529367125E1,-4.740192719E0,-1.883084106E-1,-5.755980377E0,7.458967567E0
1.530363925E1,-2.701432343E0,-3.899391174E-1,-3.845353546E0,4.715562863E0
1.531360725E1,-1.387764130E0,-3.480262756E-1,-1.955832825E0,2.423281578E0
1.532357525E1,-9.361532593E-1,-2.387535095E-1,-1.276994476E0,1.601281067E0
1.533354325E1,-7.499404907E-1,-8.128097534E-2,-9.126521301E-1,1.184040222E0
1.534351125E1,-5.444178772E-1,6.795867920E-2,-5.201683044E-1,7.560319253E-1
1.535348025E1,-3.665876770E-1,1.939965820E-1,-3.505709839E-1,5.430664909E-1
1.536344825E1,-2.408491516E-1,2.785707092E-1,-3.773652649E-1,5.272708005E-1
1.537341625E1,-1.342707825E-1,2.823129272E-1,-3.757186890E-1,4.887675983E-1
1.538338425E1,8.532257080E-3,2.104623413E-1,-3.826043701E-1,4.367531346E-1
1.539335225E1,1.402583313E-1,6.182144165E-2,-4.914280701E-1,5.147774647E-1
1.540332125E1,3.511697388E-1,-1.004411316E-1,-4.132905579E-1,5.515593273E-1
1.541328925E1,8.855584717E-1,-2.234852600E-1,-1.651066589E-1,9.281269725E-1
1.542325725E1,2.058818665E0,-2.908451843E-1,3.911366272E-1,2.115729916E0
1.543322525E1,4.139791260E0,-5.273533630E-1,1.448537750E0,4.417491919E0
1.544319325E1,6.687642975E0,-1.342258759E0,2.928809509E0,7.423217111E0
1.545316125E1,9.710606689E0,-1.847158813E0,3.689228210E0,1.055074797E1
1.546313025E1,1.374726242E1,-1.301393738E0,3.724255371E0,1.430213018E1
1.547309825E1,1.751881943E1,-1.157991943E0,3.330274658E0,1.787010657E1
1.548306621E1,2.090732300E1,-1.607357483E0,3.991749115E0,2.134558067E1
1.549303421E1,2.455583588E1,-1.465153198E0,5.705086212E0,2.525240104E1
1.550300221E1,2.634820862E1,-1.184187469E0,7.617509308E0,2.745281125E1
1.551297021E1,2.587848541E1,-7.970924377E-1,8.472381592E0,2.724174395E1
1.552293921E1,2.159873520E1,1.736389160E-2,8.421936493E0,2.318263743E1
1.553290721E1,1.606354568E1,7.985893250E-1,8.523724823E0,1.820244845E1
1.554287521E1,1.226968506E1,1.178499298E0,8.395890656E0,1.491392007E1
1.555284321E1,9.370513916E0,1.352437592E0,8.192164307E0,1.251987119E1
1.556281121E1,7.321724396E0,1.485810242E0,8.001760254E0,1.094730320E1
1.557278021E1,5.826633453E0,1.737436981E0,7.679480438E0,9.795037747E0
1.558274821E1,4.649780731E0,1.859433289E0,7.076833649E0,8.669459470E0
1.559271621E1,4.076323242E0,1.986069946E0,6.465654602E0,7.897187755E0
1.560268421E1,4.091890869E0,1.991458740E0,5.511239319E0,7.147253852E0
1.561265221E1,5.445226593E0,1.974094849E0,4.590803375E0,7.390738715E0
1.562262021E1,8.073610840E0,1.825453949E0,4.506528625E0,9.424663090E0
1.563258921E1,1.069121750E1,1.505269775E0,4.563110962E0,1.172134593E1
1.564255721E1,1.286185364E1,1.105301514E0,4.629722443E0,1.371434651E1
1.565252521E1,1.451321960E1,6.991960144E-1,4.756658478E0,1.528882658E1
1.566249321E1,1.543051208E1,3.314108276E-1,4.842879181E0,1.617603212E1
1.567246121E1,1.522858200E1,-1.212478638E-1,4.802912292E0,1.596848074E1
1.568243021E1,1.400712204E1,-7.170089722E-1,4.601880341E0,1.476112707E1
1.569239821E1,1.218496124E1,-1.468745728E0,4.285139008E0,1.299972734E1
1.570236621E1,1.043465103E1,-2.377955017E0,4.036805420E0,1.143819961E1
1.571233421E1,8.987610168E0,-3.251987457E0,3.794010315E0,1.028333960E1
1.572230221E1,7.830815735E0,-4.102518768E0,3.442690887E0,9.487067822E0
1.573227021E1,7.068151703E0,-4.866080933E0,3.031645660E0,9.101010249E0
1.574223921E1,6.882837067E0,-5.479056244E0,2.830913086E0,9.241621736E0
1.575220721E1,6.914870453E0,-6.075565796E0,2.632874908E0,9.573921005E0
1.576217521E1,7.244185638E0,-6.520440674E0,2.134710846E0,9.977542911E0
1.577214321E1,7.860753479E0,-6.721472626E0,1.528920593E0,1.045501017E1
1.578211121E1,8.546327820E0,-6.761738892E0,9.457333374E-1,1.093870393E1
1.579207921E1,9.051676941E0,-6.556515656E0,1.980381775E-1,1.117854964E1
1.580204821E1,9.316476288E0,-5.930966492E0,-1.242117004E0,1.111377292E1
1.581201621E1,9.123228149E0,-5.188959503E0,-4.451892242E0,1.140078669E1
1.582198421E1,8.937015381E0,-4.090393982E0,-1.326721069E1,1.651122183E1
1.583195221E1,9.860594788E0,-2.696193237E0,-1.724893066E1,2.005059592E1
1.584192021E1,1.067505112E1,-2.320175171E0,-1.165147064E1,1.597174685E1
1.585188921E1,9.630223846E0,-2.577789459E0,-5.641019440E0,1.145457595E1
1.586185721E1,6.332132263E0,-2.596500549E0,-3.509601746E0,7.691229974E0
1.587182521E1,6.470294952E0,-2.695594482E0,-1.181642761E0,7.108250558E0
1.588179321E1,7.288792877E0,-2.821033630E0,2.032772827E-1,7.818315292E0
1.589176121E1,8.239316254E0,-3.143762512E0,8.708889771E-1,8.861603843E0
1.590172921E1,9.351802826E0,-3.364852753E0,1.433718567E0,1.004161337E1
1.591169821E1,1.069376221E1,-3.396886139E0,1.805994415E0,1.136472619E1
1.592166621E1,1.187705154E1,-3.456013184E0,1.621577911E0,1.247549179E1
1.593163421E1,1.236159393E1,-3.597319336E0,1.161434784E0,1.292666398E1
1.594160221E1,1.207718536E1,-3.714974670E0,6.851252747E-1,1.265420245E1
1.595157021E1,1.161090500E1,-3.599265289E0,4.671784973E-1,1.216495299E1
1.596153921E1,1.106528961E1,-3.357068939E0,6.307882690E-1,1.158051985E1
1.597150721E1,1.023541534E1,-3.133733368E0,8.393046570E-1,1.073724566E1
1.598147521E1,9.250313873E0,-3.036435699E0,1.360670471E0,9.830547932E0
1.599144321E1,8.480165405E0,-3.019371185E0,1.979633331E0,9.216764930E0
1.600141121E1,8.244255981E0,-2.931952972E0,2.380799103E0,9.068203201E0
1.601137921E1,8.345744934E0,-2.802621918E0,2.502945099E0,9.152643459E0
1.602134821E1,8.377029877E0,-2.759212189E0,2.249222717E0,9.102026384E0
1.603131621E1,8.415350189E0,-2.709365845E0,1.902393951E0,9.043112563E0
1.604128421E1,8.620274048E0,-2.669698334E0,1.654659119E0,9.174655887E0
1.605125221E1,8.866062927E0,-2.658771057E0,1.480571136E0,9.373805324E0
1.606122021E1,9.073381805E0,-2.752625885E0,1.387614441E0,9.582728238E0
1.607118921E1,9.221124573E0,-2.865042114E0,1.355431366E0,9.750630692E0
1.608115721E1,9.194180603E0,-3.089275818E0,1.286424866E0,9.784246061E0
1.609112521E1,9.216783600E0,-3.236868896E0,1.100661163E0,9.830456509E0
1.610109321E1,9.165739746E0,-3.306773529E0,9.463320923E-1,9.789845795E0
1.611106121E1,9.186696167E0,-3.187321930E0,8.711883545E-1,9.762856995E0
1.612102921E1,9.186097412E0,-2.926713867E0,8.105644226E-1,9.675073871E0
1.613099821E1,9.154064026E0,-2.601589966E0,8.490344238E-1,9.554371669E0
1.614096621E1,9.196575623E0,-2.272574158E0,9.262738037E-1,9.518381146E0
1.615093421E1,9.218130798E0,-2.092947693E0,1.040785675E0,9.509868573E0
1.616090221E1,9.212292938E0,-2.056423645E0,1.153800659E0,9.509283640E0
1.617087021E1,9.258097687E0,-2.108814697E0,1.289418640E0,9.582383453E0
1.618083921E1,9.460626526E0,-2.244582367E0,1.450633392E0,9.830866773E0
1.619080721E1,9.689201202E0,-2.420765991E0,1.519041138E0,1.010189160E1
1.620077521E1,9.865983582E0,-2.597099304E0,1.568588104E0,1.032196810E1
1.621074321E1,9.884994049E0,-2.779420166E0,1.617386627E0,1.039491334E1
1.622071121E1,9.782457275E0,-2.989134064E0,1.698218536E0,1.036896036E1
1.623067921E1,9.735754395E0,-3.170556793E0,1.830992432E0,1.040143631E1
1.624064821E1,9.731712799E0,-3.168610840E0,1.926493835E0,1.041430301E1
1.625061621E1,9.533225555E0,-3.012485504E0,1.983525238E0,1.019273421E1
1.626058421E1,9.247469788E0,-2.726729736E0,1.955982513E0,9.837510870E0
1.627055221E1,8.925639038E0,-2.463576965E0,1.862127686E0,9.444774387E0
1.628052021E1,8.737779694E0,-2.349364471E0,1.897603912E0,9.244955814E0
1.629048921E1,8.724008331E0,-2.377056885E0,2.109563141E0,9.284878968E0
1.630045721E1,8.919052734E0,-2.490371246E0,2.402803345E0,9.566865450E0
1.631042521E1,9.112300873E0,-2.510279846E0,2.708467712E0,9.832157924E0
1.632039321E1,9.081464996E0,-2.358196106E0,2.904709625E0,9.821987241E0
1.633036121E1,8.759783936E0,-2.086660767E0,2.975811768E0,9.483850665E0
1.634032921E1,8.190517731E0,-1.652862854E0,2.946323090E0,8.859873366E0
1.635029821E1,7.458689575E0,-1.152004395E0,2.853815460E0,8.068669468E0
1.636026621E1,6.719975739E0,-7.455995178E-1,2.720592499E0,7.288046111E0
1.637023421E1,6.068231049E0,-4.550537109E-1,2.627785492E0,6.628405429E0
1.638020221E1,5.609734497E0,-2.574645996E-1,2.642005920E0,6.206094137E0
1.639017021E1,5.423821106E0,3.727249146E-2,2.653681641E0,6.038315235E0
1.640013921E1,5.235961761E0,2.480342102E-1,2.607876892E0,5.854727869E0
1.641010721E1,5.057981873E0,4.677772522E-1,2.565964050E0,5.690884614E0
1.642007521E1,4.847968597E0,6.111790466E-1,2.478695526E0,5.479075730E0
1.643004321E1,4.565955048E0,7.054829407E-1,2.500550079E0,5.253418161E0
1.644001121E1,4.165687408E0,7.441026306E-1,2.733316040E0,5.037624131E0
1.644998021E1,3.756438446E0,7.354206848E-1,3.199297028E0,4.988704727E0
1.645994821E1,3.395239563E0,7.357200623E-1,3.866459656E0,5.197927084E0
1.646991621E1,3.041076050E0,7.467970276E-1,4.737648010E0,5.679010302E0
1.647988433E1,2.832110596E0,6.776408386E-1,5.504802704E0,6.227591857E0
1.648985233E1,2.631378021E0,3.113525391E-1,6.063740387E0,6.617404187E0
1.649982033E1,2.238145752E0,-4.291575623E-1,6.541846161E0,6.927425482E0
1.650978933E1,1.876946869E0,-1.244961090E0,7.109615479E0,7.457847539E0
1.651975733E1,1.830842743E0,-1.700164490E0,7.634424133E0,8.032868497E0
1.652972533E1,2.199376373E0,-1.919907532E0,7.146289215E0,7.719634117E0
