"Time (s)","Acceleration x (m/s^2)","Acceleration y (m/s^2)","Acceleration z (m/s^2)","Absolute acceleration (m/s^2)"
2.823083196E-3,-4.564158783E0,6.600075073E0,6.705306244E0,1.045723043E1
1.279208343E-2,-3.582350464E0,5.709427185E0,5.697901154E0,8.825920416E0
2.276108321E-2,-3.038980408E0,4.292024689E0,4.236490173E0,6.753127189E0
3.272908321E-2,-2.908302155E0,3.141816559E0,1.992506561E0,4.722215064E0
4.269808345E-2,-3.139720917E0,2.092648315E0,2.275268555E-1,3.780051968E0
5.266708322E-2,-3.861819305E0,2.266287231E0,4.349954224E-1,4.498769519E0
6.263608299E-2,-3.375630341E0,2.872526550E0,4.517455902E0,6.328799002E0
7.260408346E-2,-3.417243805E0,1.701511688E0,1.025218048E1,1.093983098E1
8.257308323E-2,-1.289268951E0,-7.509883118E-1,1.346569794E1,1.354810757E1
9.254208300E-2,1.575174408E0,-4.572541351E0,1.599798203E1,1.671301103E1
1.025100830E-1,4.726121979E0,-5.803731079E0,1.188693100E1,1.404701577E1
1.124790832E-1,5.731431427E0,-4.089645538E0,8.519234161E0,1.105223315E1
1.224480830E-1,-1.366957397E0,-3.501069489E0,1.170356232E1,1.229225085E1
1.324160830E-1,-2.081721039E0,8.875044250E-1,1.217672836E1,1.238523073E1
1.423850833E-1,3.851490784E-1,4.149071960E0,1.187510559E1,1.258496209E1
1.523540830E-1,1.349743195E0,3.791914673E0,1.101783829E1,1.173001211E1
1.623230833E-1,2.258503418E0,2.928510132E0,9.066795502E0,9.792026856E0
1.722910833E-1,1.770368500E0,2.702629852E0,7.814649353E0,8.456190469E0
1.822600830E-1,2.210902405E-1,3.149151306E0,7.053182831E0,7.727446078E0
1.922290833E-1,-8.737330627E-1,3.906426544E0,7.236252136E0,8.269638613E0
2.021970833E-1,-7.158114624E-1,4.052672424E0,7.886350250E0,8.895564069E0
2.121660830E-1,6.572831726E-1,3.351680145E0,8.298293610E0,8.973709255E0
2.221350833E-1,1.216669922E0,2.102378082E0,8.128995667E0,8.484152866E0
2.321040831E-1,6.908134460E-1,1.413660278E0,7.316335602E0,7.483610441E0
2.420720831E-1,1.920506287E-1,1.907034302E0,7.056775360E0,7.312437470E0
2.520410833E-1,1.637893982E0,3.426524506E0,7.286697235E0,8.217038608E0
2.620100831E-1,5.391638031E0,5.834417267E0,8.459508362E0,1.160488980E1
2.719780831E-1,9.310039673E0,8.487200775E0,1.004231689E1,1.611078969E1
2.819470833E-1,1.074989548E1,1.019769379E1,1.234857101E1,1.928834927E1
2.919160831E-1,8.992998962E0,9.307345276E0,1.417656967E1,1.919572437E1
3.018850833E-1,6.892267456E0,7.017856293E0,1.335253326E1,1.658444459E1
3.118530833E-1,4.859943695E0,4.704566803E0,1.028915359E1,1.231335386E1
3.218220831E-1,2.895428925E0,3.417243805E0,7.213050385E0,8.490533536E0
3.317910833E-1,1.332828369E0,2.835254059E0,6.064937897E0,6.826314432E0
3.417590833E-1,6.944059753E-1,2.395169220E0,6.502178650E0,6.964004771E0
3.517280831E-1,1.769620056E0,2.342927856E0,8.078700256E0,8.595711949E0
3.616970833E-1,3.505111084E0,2.935545502E0,9.906698914E0,1.091081640E1
3.716653748E-1,4.003424835E0,3.884122925E0,1.002480331E1,1.147216208E1
3.816333748E-1,3.955075378E0,5.775739288E0,7.612419891E0,1.034169823E1
3.916023751E-1,4.796775055E0,5.984555054E0,6.443201294E0,1.001692533E1
4.015713749E-1,5.578748932E0,4.492158508E0,6.735992432E0,9.832371115E0
4.115393749E-1,6.235583038E0,2.189347229E0,7.757617950E0,1.019099472E1
4.215083751E-1,7.056026917E0,7.659571838E-1,9.955497437E0,1.222645228E1
4.314773749E-1,8.098459167E0,4.779560852E-1,1.246607666E1,1.487335034E1
4.414453749E-1,8.746761017E0,3.399430847E-1,1.476918732E1,1.716829297E1
4.514143751E-1,8.264913025E0,-2.453398132E-1,1.582299591E1,1.785318399E1
4.613833749E-1,7.704328766E0,-1.145567780E0,1.549023788E1,1.733829510E1
4.713523751E-1,7.175927582E0,-1.713337097E0,1.409603714E1,1.590998817E1
4.813203751E-1,6.451134796E0,-1.508562927E0,1.113519424E1,1.295706190E1
4.912893749E-1,5.960754547E0,-5.442681885E-1,7.177424469E0,9.345707284E0
5.012583747E-1,5.735772400E0,8.216413879E-1,4.588108978E0,7.390867580E0
5.112263751E-1,5.604794769E0,1.851200409E0,3.429069214E0,6.826359427E0
5.211953749E-1,4.476590881E0,1.912572784E0,3.300486603E0,5.881412449E0
5.311643747E-1,3.482957153E0,1.225052490E0,3.702400818E0,5.228720298E0
5.411333749E-1,4.086951141E0,5.008584595E-1,3.712130585E0,5.543820191E0
5.511013749E-1,5.499713287E0,3.562591553E-1,3.596421204E0,6.580882335E0
5.610703747E-1,7.403304749E0,8.725355530E-1,3.392545166E0,8.190213806E0
5.710393749E-1,8.765771484E0,1.396595764E0,3.696712646E0,9.615347827E0
5.810073749E-1,8.460855560E0,1.474134521E0,4.588707733E0,9.737319347E0
5.909763747E-1,7.038363647E0,4.843927002E-1,3.974385223E0,8.097464852E0
6.009453749E-1,4.656516724E0,-9.327104187E-1,2.759212189E0,5.492390065E0
6.109143747E-1,3.515888672E0,-1.549727325E0,2.753224640E0,4.726877812E0
6.208823747E-1,5.518274689E0,-2.749781799E-1,3.585044861E0,6.586312716E0
6.308513749E-1,8.537196808E0,2.620600433E0,6.169420624E0,1.085417094E1
6.408203747E-1,9.491911469E0,5.013524323E0,9.779613190E0,1.452145460E1
6.507883747E-1,8.703500977E0,4.687352600E0,1.146914978E1,1.514145305E1
6.607573749E-1,8.555608521E0,1.690434723E0,9.995015259E0,1.326485344E1
6.707263747E-1,8.753646698E0,-1.706152039E0,8.304430847E0,1.218609277E1
6.806953750E-1,7.884254608E0,-4.171674957E0,8.090675354E0,1.204256494E1
6.906633750E-1,6.065087585E0,-5.113516388E0,6.381529541E0,1.018122078E1
7.006323747E-1,7.519612885E0,-2.894830170E0,2.669249268E0,8.488198354E0
7.106013750E-1,1.155731644E1,-2.694396973E-2,6.500981140E0,1.326028073E1
7.205693750E-1,1.046668442E1,1.447190552E0,1.163455582E1,1.571651145E1
7.305383747E-1,8.267008667E0,1.756746826E0,8.118966522E0,1.171952256E1
7.405073750E-1,5.762716370E0,1.347198486E-1,2.358794861E0,6.228239124E0
7.504753750E-1,2.476150818E0,-2.619402924E0,7.062313843E-1,3.673058306E0
7.604443748E-1,-2.351759491E0,-6.248007202E0,5.924679565E-1,6.702192550E0
7.704133750E-1,-5.664520569E0,-9.167386322E0,7.764353943E-1,1.080419443E1
7.803823748E-1,-5.173840942E0,-9.697883148E0,6.405180359E-1,1.101035108E1
7.903503748E-1,-2.505639496E0,-7.715555420E0,1.733395386E-1,8.114066263E0
8.003193750E-1,3.339555359E-1,-5.217999115E0,3.580554199E-1,5.240920220E0
8.102883748E-1,3.336711273E0,-3.056793365E0,2.199975128E0,5.031651654E0
8.202563748E-1,6.951693878E0,-1.271905060E0,4.596940613E0,8.430637773E0
8.302253750E-1,9.798623657E0,4.273612976E-1,7.026987305E0,1.206541395E1
8.401943748E-1,1.110091553E1,1.032403107E0,9.313931580E0,1.452740525E1
8.501633750E-1,1.105271576E1,-2.902464294E-1,1.030277527E1,1.511270813E1
8.601313750E-1,9.870474243E0,-2.588866425E0,9.923913116E0,1.423420327E1
8.701003748E-1,8.717571716E0,-4.399052124E0,7.758665771E0,1.247175251E1
8.800693750E-1,8.249345398E0,-5.307962036E0,4.782255249E0,1.091311714E1
8.900373750E-1,9.214538269E0,-4.638703766E0,1.493144989E0,1.042375988E1
9.000063748E-1,1.118908218E1,-2.434836731E0,-1.334624634E0,1.152845232E1
9.099753750E-1,1.321212524E1,-1.904040527E-1,-3.281775513E0,1.361493877E1
9.199433750E-1,1.581536179E1,2.368075562E0,-5.606141968E0,1.694586315E1
9.299123748E-1,1.996114059E1,5.480104065E0,-6.783892822E0,2.178301807E1
9.398813751E-1,2.201232513E1,5.142406311E0,-7.234755249E0,2.373454200E1
9.498503748E-1,2.269131317E1,3.039878540E0,-4.828509064E0,2.339767199E1
9.598183748E-1,2.213911148E1,1.047521667E0,-5.508544922E-2,2.216394805E1
9.697873751E-1,2.196502350E1,-4.565505981E-1,1.516047363E0,2.202201388E1
9.797563748E-1,2.098126923E1,-1.808389435E0,5.551954651E-1,2.106637540E1
9.897243748E-1,1.926059738E1,-2.407593384E0,-1.232087860E0,1.944955418E1
9.996933751E-1,1.724309280E1,-2.434088287E0,-2.427801361E0,1.758247010E1
1.009662375E0,1.424827057E1,-2.673141174E0,-3.426225128E0,1.489623834E1
1.019631375E0,1.060335022E1,-2.659968567E0,-4.517904968E0,1.182869113E1
1.029599375E0,7.356152802E0,-2.339485016E0,-5.041516113E0,9.219710348E0
1.039568375E0,5.979465637E0,-1.806443481E0,-4.788542175E0,7.870666015E0
1.049537375E0,5.561235352E0,-1.789229279E0,-3.765419769E0,6.950328488E0
1.059505375E0,5.821693726E0,-2.875819702E0,-1.639540558E0,6.697055326E0
1.069474375E0,6.880292358E0,-4.310885468E0,7.405101013E-1,8.152944969E0
1.079443375E0,8.577163696E0,-5.239254913E0,3.253783722E0,1.056430961E1
1.089412375E0,1.047401917E1,-5.233417053E0,5.025798798E0,1.274175753E1
1.099380375E0,1.136062546E1,-5.162314911E0,6.020031281E0,1.385474946E1
1.109349375E0,1.121931931E1,-4.691543884E0,5.855373688E0,1.349700377E1
1.119318375E0,9.509275360E0,-4.000730438E0,4.729564819E0,1.134905041E1
1.129286375E0,8.752748566E0,-4.072730713E0,3.645818481E0,1.031938638E1
1.139255375E0,9.915829926E0,-4.697980499E0,3.264860687E0,1.144788274E1
1.149224375E0,1.058463913E1,-5.157375183E0,4.097579041E0,1.246688647E1
1.159192375E0,1.087473587E1,-5.233267365E0,5.033881989E0,1.307619728E1
1.169161375E0,1.045875092E1,-5.097050629E0,5.193899231E0,1.274134942E1
1.179130375E0,8.676407318E0,-5.378166046E0,5.145699463E0,1.143166379E1
1.189099375E0,7.372618561E0,-5.836213531E0,4.419858856E0,1.038999736E1
1.199067375E0,7.106172638E0,-5.657634888E0,3.325933685E0,9.673073811E0
1.209036375E0,7.280110931E0,-4.706363068E0,1.765279083E0,8.846811784E0
1.219005375E0,7.090754700E0,-3.368145905E0,1.222956848E-1,7.850997725E0
1.228973375E0,6.015091553E0,-2.446213074E0,-3.094065857E0,7.192949904E0
1.238942375E0,6.859186249E0,-1.706900482E0,-5.193749542E0,8.771372729E0
1.248911375E0,4.957690430E0,-1.868863678E0,-4.906047821E0,7.220848362E0
1.258880375E0,1.203991287E1,-3.904330902E0,-1.930535431E0,1.280352564E1
1.268848375E0,1.302591248E1,-5.002297668E0,3.002456360E0,1.427277555E1
1.278817375E0,1.189501419E1,-6.020630035E0,7.254514160E0,1.517785638E1
1.288786375E0,1.121797211E1,-6.791227570E0,1.026280838E1,1.665199405E1
1.298754375E0,9.854307861E0,-7.051386566E0,1.046653473E1,1.601180143E1
1.308723375E0,9.177415466E0,-7.143445129E0,7.091503143E0,1.362142356E1
1.318692375E0,8.820856934E0,-6.507268066E0,5.424270172E0,1.223007611E1
1.328661375E0,9.097032623E0,-5.272785187E0,5.053940277E0,1.166621526E1
1.338629375E0,9.898765411E0,-3.987408142E0,3.041525116E0,1.109665965E1
1.348598375E0,1.173769135E1,-3.404669952E0,2.239642639E0,1.242502212E1
1.358567375E0,1.250783981E1,-3.243305511E0,2.299667816E0,1.312454035E1
1.368536000E0,1.199156342E1,-3.404969330E0,2.274520111E0,1.267141867E1
1.378505000E0,1.154848480E1,-4.135899353E0,1.860331421E0,1.240701405E1
1.388474000E0,1.065154999E1,-5.333109741E0,1.071172485E0,1.196014160E1
1.398442000E0,1.026325745E1,-6.034551086E0,1.405876465E0,1.198860913E1
1.408411000E0,1.097158447E1,-6.295159149E0,2.562970276E0,1.290633609E1
1.418380000E0,1.294133835E1,-7.029981079E0,3.581901398E0,1.515681002E1
1.428349000E0,1.461815140E1,-7.835755463E0,3.638184357E0,1.698015899E1
1.438317000E0,1.407567947E1,-6.620283051E0,2.187101898E0,1.570784247E1
1.448286000E0,1.329295715E1,-4.649930420E0,-4.077520752E-1,1.408867718E1
1.458255000E0,1.262579453E1,-2.683469696E0,-2.829266510E0,1.321425162E1
1.468223000E0,1.023870850E1,-1.573228455E0,-4.784350891E0,1.141035551E1
1.478192000E0,8.262667694E0,-2.030976563E0,-6.058800659E0,1.044536302E1
1.488161000E0,8.964109039E0,-3.364852753E0,-4.977748718E0,1.079145343E1
1.498130000E0,1.077728851E1,-4.451592865E0,-2.621348877E0,1.195148931E1
1.508098000E0,1.141301651E1,-4.041894836E0,-9.800120544E-1,1.214719241E1
1.518067000E0,9.131011963E0,-2.959795074E0,3.218307495E-2,9.598791700E0
1.528036000E0,4.981191559E0,-2.788401489E0,1.467697906E0,5.894199637E0
1.538004000E0,-2.010319519E-1,-2.930905151E0,4.401447144E0,5.291819707E0
1.547973000E0,-1.706002350E0,-1.496288452E0,2.170785828E0,3.140323910E0
1.557942000E0,-3.884422302E-1,2.679428101E-1,-2.968327332E-1,5.574857731E-1
1.567910000E0,2.308349762E0,2.241588593E0,-2.767295380E0,4.243951197E0
1.577879000E0,4.025429077E0,4.117487640E0,-4.180805969E0,7.115962498E0
1.587848000E0,4.067940674E0,2.194137268E0,-4.306544495E0,6.317333707E0
1.597817000E0,6.733298035E0,-1.731898499E0,-4.133354645E0,8.088349365E0
1.607785000E0,7.481891327E0,-5.768404541E0,-2.111060028E0,9.680380324E0
1.617754000E0,7.298522644E0,-7.414381714E0,6.286926270E-2,1.040410695E1
1.627723000E0,7.503296814E0,-7.632777557E0,1.360221405E0,1.078929834E1
1.637691000E0,6.908134460E0,-7.201524353E0,1.426683197E0,1.008065968E1
1.647660000E0,8.236921234E0,-5.317841492E0,1.052162018E0,9.860697463E0
1.657629000E0,1.096709381E1,-2.668500824E0,1.522633667E0,1.138931326E1
1.667598000E0,1.332184708E1,-1.601369934E0,2.050735474E0,1.357355927E1
1.677566000E0,1.459090805E1,-1.512454834E0,3.125799866E0,1.499842466E1
1.687535000E0,1.392973297E1,-2.008972321E0,4.318669281E0,1.472156020E1
1.697504000E0,1.161734161E1,-3.317700806E0,5.550906830E0,1.329595169E1
1.707472000E0,8.765921173E0,-4.077969818E0,4.582420807E0,1.069905567E1
1.717441000E0,7.093299408E0,-4.141437836E0,2.182760925E0,8.498873402E0
1.727410000E0,6.024821320E0,-4.570894775E0,-7.469467163E-2,7.562878438E0
1.737378000E0,5.206622772E0,-6.047124939E0,-2.486329651E0,8.358138301E0
1.747347000E0,4.992717590E0,-7.904163208E0,-3.275937653E0,9.906300645E0
1.757316000E0,5.924080811E0,-8.363408203E0,-2.215243378E0,1.048563939E1
1.767285000E0,5.516927490E0,-7.660469971E0,1.017583923E0,9.494986369E0
1.777253000E0,4.938979340E0,-7.148235168E0,1.623673553E0,8.838953487E0
1.787222000E0,2.904110870E0,-7.164700928E0,2.241588593E0,8.049317906E0
1.797191000E0,7.955057373E0,-9.642648010E0,2.426753540E0,1.273392050E1
1.807159000E0,1.020757324E1,-1.177676010E1,1.336570587E0,1.564202835E1
1.817128000E0,7.252418518E0,-1.159668457E1,1.189725952E0,1.372938874E1
1.827097000E0,6.877597961E0,-1.223765167E1,5.484594727E-1,1.404856861E1
1.837066000E0,5.908662872E0,-1.072699310E1,-1.999841309E0,1.240886954E1
1.847034000E0,5.331762543E0,-7.496710510E0,-6.111191711E0,1.104423037E1
1.857003000E0,7.314389648E0,-3.907923431E0,-8.359516296E0,1.177512948E1
1.866972000E0,1.011207184E1,1.516197052E0,-5.555696869E0,1.163695055E1
1.876940000E0,1.230965195E1,3.397335205E0,-8.217910767E-2,1.277012807E1
1.886909000E0,1.329565155E1,-1.236728210E0,3.460354156E0,1.379412548E1
1.896878000E0,1.370714584E1,-6.559210052E0,2.250420227E0,1.536142815E1
1.906847000E0,1.248852997E1,-6.706204376E0,-8.707392883E-1,1.420192750E1
1.916815000E0,1.072414902E1,-5.246439972E0,-2.485880585E0,1.219475735E1
1.926784000E0,1.012284943E1,-5.648653564E0,-3.155438232E0,1.201399842E1
1.936753000E0,8.108039246E0,-5.375471649E0,-2.559377747E0,1.005914561E1
1.946721000E0,9.714348907E0,-5.045108643E0,-2.076781311E0,1.114157603E1
1.956690000E0,1.183633621E1,-3.504961395E0,-1.787582703E0,1.247313358E1
1.966659000E0,1.517304749E1,-1.003662872E0,-2.436932373E0,1.540023859E1
1.976627000E0,1.939876007E1,4.303550720E-1,-2.809058533E0,1.960581311E1
1.986596000E0,2.145653091E1,9.623487854E-1,-2.136058044E0,2.158405842E1
1.996565000E0,2.062441132E1,1.118025055E0,-1.362466736E0,2.069958062E1
2.006534000E0,1.886976013E1,3.915856934E-1,-1.509610748E0,1.893409917E1
2.016502000E0,1.820319626E1,-4.125421143E-1,-2.357297974E0,1.835983112E1
2.026471000E0,1.454704926E1,-1.351689148E-1,-3.508553925E0,1.496478745E1
2.036440000E0,1.085677322E1,1.198407898E0,-4.591851196E0,1.184866253E1
2.046408000E0,9.648186493E0,1.526675262E0,-7.068750458E0,1.205758985E1
2.056377000E0,8.018375702E0,-5.824388123E-1,-1.041204803E1,1.315463143E1
2.066346000E0,6.046226807E0,-3.937112732E0,-1.324266174E1,1.508064340E1
2.076315000E0,6.190975800E0,-5.028942261E0,-1.109148514E1,1.366160621E1
2.086283000E0,7.954608307E0,-3.384162598E0,-6.500232697E0,1.081579285E1
2.096252000E0,9.897867279E0,-1.656305695E0,-3.352578278E0,1.058068553E1
2.106221000E0,1.209125610E1,-5.074447632E-1,-2.056423645E0,1.227537586E1
2.116189000E0,1.315524353E1,-1.750010834E0,-1.620530090E0,1.336970785E1
2.126158000E0,1.088147186E1,-4.118385773E0,-2.623294830E0,1.192682720E1
2.136127000E0,8.537945251E0,-4.830604706E0,-2.170636139E0,1.004703499E1
2.146095000E0,8.170609131E0,-5.348078613E0,-1.304237823E0,9.851996484E0
2.156064000E0,7.430997162E0,-5.478457489E0,-1.189127197E0,9.308449859E0
2.166033000E0,5.743855591E0,-5.111121368E0,-1.622925110E0,7.858073848E0
2.176002000E0,4.269122314E0,-6.085894318E0,-1.125958557E0,7.518729790E0
2.185970000E0,2.787653046E0,-6.182593231E0,1.595532074E0,6.967150864E0
2.195939000E0,1.328637085E0,-7.867639160E0,3.941753082E0,8.899575261E0
2.205908000E0,5.034780121E0,-8.026907959E0,8.164022827E-1,9.510350936E0
2.215876000E0,2.291884003E0,-7.847131805E0,4.156855774E-1,8.185536290E0
2.225845000E0,-1.194515991E0,-7.776329041E0,1.211281128E0,7.960236414E0
2.235814000E0,3.081492004E0,-6.924600220E0,8.178991699E-1,7.623295890E0
2.245782000E0,1.018766464E1,-4.795128479E0,8.310717773E-1,1.129036971E1
2.255751000E0,1.290271866E1,-3.253634033E0,2.173180847E0,1.348291505E1
2.265720000E0,1.054107971E1,-4.358336792E0,3.078198853E0,1.181459983E1
2.275689000E0,8.783734131E0,-5.506748657E0,8.397537231E-1,1.040112746E1
2.285657000E0,9.544302521E0,-4.852010193E0,-1.908231812E0,1.087552583E1
2.295626000E0,1.060993652E1,-4.396657104E0,-9.535770264E0,1.492756716E1
2.305595000E0,1.210817093E1,-3.337609406E0,-2.086570953E1,2.435416338E1
2.315563000E0,1.341734848E1,-1.516795807E0,-1.865450775E1,2.302860328E1
2.325532000E0,1.263238083E1,-2.231858826E-1,-8.778045959E0,1.538443851E1
2.335501000E0,8.967402191E0,-1.789828033E0,-5.563181305E0,1.070358691E1
2.345470000E0,3.095712433E0,-3.792513428E0,-5.606890411E0,7.443373808E0
2.355438000E0,6.032455444E-1,-4.922214203E0,-4.090693359E0,6.428520048E0
2.365407000E0,4.686005402E0,-6.902895355E0,-1.326691132E0,8.448000963E0
2.375376083E0,8.495882721E0,-8.330925751E0,6.037395172E0,1.334295648E1
2.385344083E0,1.114282837E1,-7.805069275E0,6.273753662E0,1.498137896E1
2.395313083E0,1.556807602E1,-6.596033478E0,4.627327423E0,1.752954100E1
2.405282083E0,1.730266891E1,-3.098855896E0,3.007695465E0,1.783343745E1
2.415251083E0,1.603944580E1,-1.242416382E0,2.893333282E0,1.634560484E1
2.425219083E0,1.519699768E1,2.303709412E-1,5.051245880E0,1.601614480E1
2.435188083E0,1.718246887E1,1.455273743E0,4.316274261E0,1.777597485E1
2.445157083E0,1.722258545E1,1.748364258E0,2.223775635E0,1.745334940E1
2.455125083E0,1.458132797E1,2.176623688E0,1.948947144E-1,1.474417851E1
2.465094083E0,1.049078430E1,1.937720490E0,-1.310674438E0,1.074845028E1
2.475063083E0,7.570806427E0,2.811154175E-1,-2.578238525E0,8.002715147E0
2.485031083E0,6.102060699E0,-2.232158203E0,-5.783672791E0,8.698766922E0
2.495000083E0,5.334456940E0,-4.977748718E0,-7.567812653E0,1.051219299E1
2.504969083E0,6.456673279E0,-6.482419739E0,-4.005221100E0,9.987601892E0
2.514938083E0,8.785979462E0,-6.876849518E0,2.202070770E0,1.137249357E1
2.524906083E0,1.032477951E1,-5.822292480E0,7.727979584E0,1.414997633E1
2.534875083E0,1.101259918E1,-3.991449738E0,1.035142410E1,1.563205018E1
2.544844083E0,9.342821503E0,-3.201841736E0,7.512577515E0,1.240882448E1
2.554812083E0,6.554270325E0,-2.579885101E0,2.271526337E0,7.400952542E0
2.564781083E0,4.062551880E0,-2.192640381E0,-3.482807465E0,5.782901301E0
2.574750083E0,2.777923279E0,-1.884880371E0,-8.635093231E0,9.264689248E0
2.584719083E0,3.638783112E0,-7.945477295E-1,-1.038181091E1,1.102968932E1
2.594687083E0,5.990093536E0,2.926414490E-1,-8.387208710E0,1.031077735E1
2.604656083E0,8.690777435E0,-4.978646851E-1,-4.328698425E0,9.721888280E0
2.614625083E0,1.068058960E1,-2.305206299E0,1.476379852E0,1.102581823E1
2.624593083E0,1.125719055E1,-3.709436188E0,6.171516266E0,1.336307857E1
2.634562083E0,1.125569366E1,-3.669469299E0,6.483168182E0,1.349767071E1
2.644531083E0,1.165147064E1,-3.097508698E0,2.860701141E0,1.239092165E1
2.654500083E0,1.291394531E1,-2.921325073E0,-7.937992859E-1,1.326402055E1
2.664468083E0,1.290211990E1,-2.284998322E0,-2.659519501E0,1.337007701E1
2.674437083E0,1.039528290E1,-2.705773315E0,-2.155517578E0,1.095579170E1
2.684406083E0,1.043450134E1,-4.879103851E0,1.385069733E0,1.160184860E1
2.694374083E0,1.279733780E1,-6.060297546E0,5.575455780E0,1.521790946E1
2.704343083E0,1.412372955E1,-4.705315247E0,8.869954834E0,1.732904576E1
2.714312083E0,1.643327682E1,-2.217039642E0,7.101083221E0,1.803865945E1
2.724280083E0,1.834031113E1,-2.584824829E0,1.613943787E0,1.859174941E1
2.734249083E0,1.766671188E1,-2.718347168E0,-5.548661499E0,1.871602961E1
2.744218083E0,1.480451385E1,-1.578467560E0,-1.009171417E1,1.798632495E1
2.754187083E0,1.206730591E1,-8.584648132E-1,-1.006821304E1,1.573930582E1
2.764155083E0,1.024739044E1,-1.229543152E0,-9.061107330E0,1.373406179E1
2.774124083E0,8.105195160E0,-1.825753326E0,-8.776998138E0,1.208566341E1
2.784093083E0,5.544619904E0,-2.803070984E0,-8.454868011E0,1.049213086E1
2.794061083E0,4.206253052E0,-3.567082214E0,-6.258485413E0,8.341779182E0
2.804030083E0,4.246519318E0,-3.818409576E0,-4.020639038E-1,5.724930863E0
2.813999083E0,6.179300079E0,-3.037034454E0,4.371659088E0,8.155901601E0
2.823968083E0,8.176297302E0,-2.078876953E0,6.375092926E0,1.057427902E1
2.833936083E0,9.236093445E0,-9.348060608E-1,4.996609497E0,1.054255144E1
2.843905083E0,9.546398163E0,2.866539001E-1,-5.367837524E-1,9.565773630E0
2.853874083E0,9.352102203E0,1.583856354E0,-6.303392029E0,1.138872985E1
2.863842083E0,8.250542908E0,1.114432526E0,-9.074878693E0,1.231530923E1
2.873811083E0,7.763755188E0,2.619552612E-1,-6.584507446E0,1.018333214E1
2.883780083E0,8.004903717E0,-3.966751099E-1,2.022294617E-1,8.017277058E0
2.893748083E0,9.696236572E0,-3.116519165E-1,1.183962936E1,1.530656572E1
2.903717083E0,1.233614685E1,5.417234802E-1,1.611728394E1,2.030371456E1
2.913686083E0,1.561882050E1,8.684939575E-1,8.669970703E0,1.788491620E1
2.923655083E0,1.554397614E1,1.559756470E0,2.102976837E0,1.576294852E1
2.933623083E0,1.283101776E1,2.398312683E0,-2.614014130E0,1.331239987E1
2.943592083E0,1.320104828E1,2.987637177E0,-5.491480408E0,1.460650570E1
2.953561083E0,1.360266312E1,2.822081451E0,-6.896458740E0,1.550992362E1
2.963529083E0,1.004875351E1,1.206191711E0,-3.733236694E0,1.078746503E1
2.973498083E0,7.842491455E0,-1.038240967E0,2.134860535E0,8.193915183E0
2.983467083E0,8.422984314E0,-2.120490417E0,6.527026978E0,1.086486197E1
2.993436083E0,9.340576172E0,-3.108885040E0,7.497159576E0,1.237412345E1
3.003404083E0,1.079824493E1,-4.951104126E0,7.231312408E0,1.390709908E1
3.013373083E0,1.206236618E1,-5.284311218E0,6.281687164E0,1.459055230E1
3.023342083E0,1.309596680E1,-5.252277832E0,6.136788483E0,1.538671315E1
3.033310083E0,1.337827972E1,-3.460803223E0,7.048991547E0,1.551269832E1
3.043279083E0,1.115390533E1,-1.642534332E0,7.469167786E0,1.352390442E1
3.053248083E0,7.618706818E0,-2.266586609E0,6.316414948E0,1.015279303E1
3.063216083E0,5.465733948E0,-3.644171906E0,1.833686829E0,6.820311126E0
3.073185083E0,4.012555847E0,-4.535717926E0,-1.799258423E0,6.317489407E0
3.083154083E0,2.637964325E0,-5.806425476E0,-3.277883606E0,7.170631320E0
3.093123083E0,1.878593445E0,-6.261030121E0,-3.952830048E0,7.639010204E0
3.103091083E0,1.966760101E0,-5.506149902E0,-3.792663116E0,6.969227042E0
3.113060083E0,3.241509247E0,-4.855902100E0,-3.232228546E0,6.673415076E0
3.123029083E0,4.370311890E0,-4.465663605E0,-2.245031433E0,6.639423437E0
3.132997083E0,4.696633301E0,-3.572021942E0,-9.415420532E-1,5.975299704E0
3.142966083E0,5.389542389E0,-2.263892212E0,-9.728269958E-1,5.926108966E0
3.152935083E0,6.266718292E0,-7.114704895E-1,-3.983516235E0,7.459648116E0
3.162904083E0,8.143216095E0,9.632469177E-1,-7.060068512E0,1.082055361E1
3.172872083E0,8.724906464E0,4.427792358E-1,-8.033194885E0,1.186811975E1
3.182841083E0,7.302863617E0,-1.532662811E0,-6.723867645E0,1.004446457E1
3.192810083E0,5.805227966E0,-3.043471069E0,-2.284100189E0,6.941217585E0
3.202778083E0,5.805227966E0,-3.767365723E0,2.821033630E0,7.473416018E0
3.212747083E0,7.281607819E0,-4.048181763E0,3.733386383E0,9.129499542E0
3.222716083E0,9.220825195E0,-4.010609894E0,3.615880737E0,1.068565405E1
3.232685083E0,1.094733490E1,-4.326752472E0,2.152224426E0,1.196649482E1
3.242653083E0,1.057550812E1,-4.116888885E0,9.722282410E-1,1.139014371E1
3.252622083E0,1.095092743E1,-1.623374176E0,-6.475534058E-1,1.108952121E1
3.262591083E0,1.319820419E1,-5.298980713E-2,-5.688171387E-1,1.321056224E1
3.272559083E0,1.387419846E1,-2.002386017E0,-8.156538391E-1,1.404166029E1
3.282528083E0,1.218421280E1,-4.616100769E0,-1.847458191E0,1.315965538E1
3.292497083E0,8.445886688E0,-4.435127106E0,-4.186643829E0,1.041783763E1
3.302465083E0,4.229155426E0,-3.545976105E0,-4.631518707E0,7.204905807E0
3.312434083E0,3.644321594E0,-3.099754028E0,-2.840193787E0,5.563834619E0
3.322403083E0,3.917802887E0,-4.197720795E0,-1.728605347E0,5.996508632E0
3.332372083E0,4.572541351E0,-5.267546082E0,-6.560856628E-1,7.006113368E0
3.342340083E0,6.845564575E0,-5.549559631E0,-1.290915527E0,8.906504890E0
3.352309083E0,9.513017578E0,-4.890629883E0,-1.666933594E0,1.082563770E1
3.362278083E0,1.115764755E1,-3.971690826E0,-1.067280579E0,1.189144713E1
3.372245500E0,1.271994873E1,-3.757785645E0,-7.057823181E-1,1.328217517E1
3.382214500E0,1.317664902E1,-4.411775665E0,-6.113287354E-1,1.390904622E1
3.392183500E0,1.073313034E1,-3.852388916E0,-1.745370483E-1,1.140488713E1
3.402152500E0,1.244931152E1,-2.883004761E0,-4.537065125E-1,1.278682617E1
3.412120500E0,1.626188324E1,-3.443738708E0,-2.504292297E-1,1.662440668E1
3.422089500E0,1.686228470E1,-4.086651764E0,1.008303223E0,1.737970205E1
3.432058500E0,1.588032669E1,-4.450694733E0,2.321372681E0,1.665479602E1
3.442026500E0,1.538261169E1,-3.856280823E0,2.320175171E-2,1.585863117E1
3.451995500E0,1.425425812E1,-3.409310303E0,-5.928870850E0,1.581008478E1
3.461964500E0,1.390248962E1,-2.865191803E0,-9.630822601E0,1.715346279E1
3.471932500E0,1.476349915E1,-3.268004150E0,-9.414073334E0,1.781194922E1
3.481901500E0,1.605561218E1,-4.232598267E0,-5.880521393E0,1.761471267E1
3.491870500E0,1.730970428E1,-4.505331116E0,-1.011746063E0,1.791500770E1
3.501839500E0,1.826007797E1,-3.998934174E0,1.145867157E0,1.872791856E1
3.511807500E0,1.922257645E1,-3.477867737E0,1.108295288E0,1.956607594E1
3.521776500E0,2.071093140E1,-3.077450409E0,-5.728587341E-1,2.094615830E1
3.531745500E0,2.029240173E1,-3.187920685E0,-2.854414215E0,2.073866165E1
3.541713500E0,1.557750641E1,-4.428690491E0,-5.695955200E0,1.716729190E1
3.551682500E0,1.208107727E1,-5.083878021E0,-7.782316589E0,1.524344762E1
3.561651500E0,9.849517822E0,-4.147874451E0,-1.229153961E1,1.628802658E1
3.571620500E0,9.152567139E0,-4.257147217E0,-1.144385239E1,1.525957224E1
3.581588500E0,9.346264343E0,-3.303630066E0,-4.986730042E0,1.109658079E1
3.591557500E0,7.272476807E0,-1.077908478E0,4.478686523E-1,7.365554420E0
3.601526500E0,4.291575623E0,-1.345252533E0,-1.293310547E0,4.679741219E0
3.611494500E0,4.231550446E0,-1.585502930E0,-4.121678925E0,6.116214178E0
3.621463500E0,3.722309418E0,-8.316705322E-1,-6.382277985E0,7.435101583E0
3.631432500E0,1.820065155E0,-4.046086121E-1,-6.386020203E0,6.652638524E0
3.641400500E0,2.484234009E0,-9.753717041E-1,-6.567143555E0,7.088733529E0
3.651369500E0,6.068530426E0,-1.881287842E0,-5.658083954E0,8.507656522E0
3.661338500E0,9.320218506E0,1.776805115E-1,-1.774709473E0,9.489343343E0
3.671307500E0,1.096365097E1,1.429826660E0,9.078620911E-1,1.109370364E1
3.681275500E0,9.883048096E0,7.125183105E-2,-6.385720825E-1,9.903912903E0
3.691244500E0,7.398215332E0,-6.358776855E-1,-2.796185303E0,7.934518434E0
3.701213500E0,2.846331024E0,-3.888912964E-1,-3.134930878E0,4.252132212E0
3.711181500E0,-7.943980408E-1,-3.441343689E-1,-4.012106781E0,4.104448505E0
3.721150500E0,-1.238524475E0,-6.512956238E-1,-2.870879974E0,3.193756517E0
3.731119500E0,-8.286767578E-1,-6.225553894E-1,2.209405518E-1,1.059761817E0
3.741088500E0,1.522933044E0,-7.605683899E-1,1.357527008E0,2.177307721E0
3.751056500E0,3.975133667E0,-1.329984283E0,1.722019043E0,4.531654825E0
3.761025500E0,4.723277893E0,-1.414109344E0,2.822081451E0,5.680950890E0
3.770994500E0,3.793411560E0,-2.135010223E0,4.231251068E0,6.070562208E0
3.780962500E0,2.696492615E0,-3.108585663E0,4.145030365E0,5.840860722E0
3.790931500E0,1.505120087E0,-2.811004486E0,2.896327057E0,4.307649373E0
3.800900500E0,7.896080017E-1,-1.613943787E0,-1.528321838E-1,1.803234044E0
3.810868500E0,2.186952209E-1,-1.071172485E0,-3.662284241E0,3.821984295E0
3.820837500E0,1.579515381E0,-1.289418640E0,-7.239545288E0,7.521202380E0
3.830806500E0,5.231321411E0,-3.163970490E0,-9.435927887E0,1.124340554E1
3.840775500E0,1.090362579E1,-2.484383698E0,-8.243657227E0,1.389313148E1
3.850743500E0,1.455692871E1,-2.589465179E0,-4.633764038E0,1.549455622E1
3.860712500E0,1.349144440E1,-3.119063873E0,3.832031250E-1,1.385259817E1
3.870681500E0,9.243577881E0,-3.340154114E0,3.155737610E0,1.032274389E1
3.880649500E0,7.188950500E0,-3.347788239E0,2.109114075E-1,7.933043490E0
3.890618500E0,6.732699280E0,-2.342628479E0,-3.551364899E0,7.964253915E0
3.900587500E0,7.814200287E0,-1.956132202E0,-5.263205109E0,9.622344170E0
3.910556500E0,1.222762253E1,-1.634600830E0,-5.302573242E0,1.342773084E1
3.920524500E0,1.843222000E1,-7.255412292E-1,-3.795507202E0,1.883292381E1
3.930493500E0,2.606484787E1,8.412506104E-1,-1.161883850E0,2.610429028E1
3.940462500E0,2.886432632E1,1.540895691E0,2.167941742E0,2.898661182E1
3.950430500E0,2.558554459E1,-9.072633362E-1,5.224286041E0,2.612922470E1
3.960399500E0,2.076242432E1,-5.805527344E0,5.401966553E0,2.222529311E1
3.970368500E0,1.846784592E1,-7.903414764E0,4.008514252E0,2.048398116E1
3.980337500E0,1.624212433E1,-7.584128723E0,3.369343414E0,1.823946508E1
3.990305500E0,1.351419708E1,-5.367238770E0,-4.733606415E0,1.529208307E1
4.000274500E0,1.254675888E1,-1.638043671E0,-1.532797531E1,1.987589426E1
4.010243500E0,1.227627136E1,-1.230441284E0,-2.214539841E1,2.535033520E1
4.020211500E0,1.350641327E1,-2.187850342E0,-1.644390472E1,2.139186507E1
4.030180500E0,1.952464828E1,-1.829196167E0,-6.730154572E0,2.073289246E1
4.040149500E0,2.611035324E1,-1.691183167E0,2.018851776E0,2.624283539E1
4.050117500E0,2.541415100E1,-2.646795959E0,8.314310303E0,2.687028760E1
4.060086500E0,2.176773376E1,-4.724625092E0,8.784781952E0,2.394428344E1
4.070055500E0,1.333966003E1,-6.414461060E0,4.851411438E0,1.557652187E1
4.080024500E0,4.022584991E0,-5.288502502E0,-2.070195007E-1,6.647729372E0
4.089992500E0,-2.040107574E0,-4.396208038E0,-7.873776398E0,9.245811960E0
4.099961500E0,-6.160588989E0,-2.328408051E0,-1.589364899E1,1.720413959E1
4.109930500E0,-8.441096649E0,-1.719474335E0,-1.226549377E1,1.498836356E1
4.119898500E0,-8.679401093E0,-3.004102936E0,-7.512577515E0,1.186572622E1
4.129867500E0,-8.032446442E0,-2.698887634E0,-8.373437347E0,1.191296115E1
4.139836500E0,-4.586013336E0,-7.234455872E-1,-9.633666687E0,1.069403692E1
4.149804500E0,3.474125519E0,1.008602600E0,-1.064990341E1,1.124754507E1
4.159773500E0,9.981992340E0,4.098477173E-1,-9.275910645E0,1.363270569E1
4.169742500E0,1.335208420E1,-9.198371887E-1,-6.762337646E0,1.499511465E1
4.179711500E0,1.622820328E1,-1.517394562E0,-4.755760345E0,1.697864318E1
4.189679500E0,1.811443085E1,-1.632056122E0,-2.454445953E0,1.835267057E1
4.199648500E0,1.724189529E1,-1.548829193E0,5.298980713E-2,1.731140182E1
4.209617500E0,1.321182587E1,-1.449136505E0,1.124761047E0,1.333856914E1
4.219585500E0,8.220904541E0,-1.251397705E0,-5.261558533E-1,8.332233054E0
4.229554500E0,3.066373444E0,-1.137933655E0,-2.937790833E0,4.396379655E0
4.239523500E0,-2.438429260E0,-1.556912384E0,-3.757486267E0,4.742216410E0
4.249492500E0,-6.463858337E0,-2.190993805E0,-1.989063721E0,7.109028973E0
4.259460500E0,-7.246730347E0,-2.793041840E0,-4.728666687E-1,7.780731734E0
4.269429500E0,-5.895490265E0,-3.679348755E0,-1.610800323E0,7.133658977E0
4.279398500E0,-3.452720032E0,-4.607119446E0,-2.899021454E0,6.446018197E0
4.289366500E0,-3.023712158E-2,-5.190755768E0,-2.468516693E0,5.747906957E0
4.299335500E0,4.523742828E0,-5.151687012E0,-6.503974915E-1,6.886736901E0
4.309304500E0,9.935588837E0,-4.810995483E0,1.873653717E0,1.119697197E1
4.319272500E0,1.363679214E1,-4.393363953E0,2.290536804E0,1.450897328E1
4.329241500E0,1.440978470E1,-3.873794403E0,1.031504974E0,1.495701109E1
4.339210500E0,1.313758026E1,-3.468287659E0,1.017284546E0,1.362570740E1
4.349179500E0,1.118144806E1,-3.166664886E0,1.778900757E0,1.175657412E1
4.359147500E0,8.658744049E0,-1.624721375E0,2.373913422E0,9.124090803E0
4.369117333E0,1.107741440E1,-1.986369324E-1,2.186203766E0,1.129283194E1
4.379086333E0,1.811368240E1,-2.760260010E-1,1.327589264E0,1.816436549E1
4.389054333E0,2.299413345E1,-1.420545959E0,1.655706940E0,2.309739140E1
4.399023333E0,2.494787064E1,-3.507955170E0,1.661694489E0,2.524803413E1
4.408992333E0,2.591935043E1,-4.810396729E0,-7.791297913E-1,2.637346558E1
4.418961333E0,2.647738998E1,-4.558171234E0,-5.193599854E0,2.736425743E1
4.428929333E0,2.522120224E1,-4.885839844E-1,-7.102280731E0,2.620668137E1
4.438898333E0,2.599733826E1,2.349065094E0,-9.789941711E0,2.787871342E1
4.448867333E0,2.444401840E1,2.174677734E0,-1.182421143E1,2.724061737E1
4.458835333E0,2.044268921E1,6.809339905E-1,-1.017748581E1,2.284619072E1
4.468804333E0,1.731015335E1,-1.933978271E-1,-8.042924652E0,1.908841137E1
4.478773333E0,1.622910141E1,-1.006806335E0,-5.911656647E0,1.730159172E1
4.488741333E0,1.510014908E1,-3.238515472E0,-4.847369843E0,1.618639796E1
4.498710333E0,1.402239029E1,-6.253096619E0,-4.953050079E0,1.613261764E1
4.508679333E0,1.286095551E1,-8.561147003E0,-4.707560577E0,1.615111579E1
4.518648333E0,9.710157623E0,-1.052805679E1,-3.354673920E0,1.470989388E1
4.528616333E0,5.128934326E0,-1.196746353E1,-1.217568054E0,1.307702652E1
4.538585333E0,6.548881531E-1,-1.219124817E1,-3.168910217E-1,1.221293701E1
4.548554333E0,-3.474724274E0,-1.172421936E1,-8.960366821E-1,1.226107296E1
4.558522333E0,-8.844507751E0,-1.184741318E1,-3.350632324E0,1.515959278E1
4.568491333E0,-1.181852325E1,-1.244631775E1,-6.656956787E0,1.840932891E1
4.578460333E0,-8.316705322E0,-1.180579971E1,-9.057814178E0,1.704665633E1
4.588429333E0,-2.539469147E0,-9.209448853E0,-1.101080292E1,1.457740144E1
4.598397333E0,3.198847961E0,-6.762337646E0,-1.232342331E1,1.441626168E1
4.608366333E0,6.690337372E0,-5.153034210E0,-1.159069702E1,1.434080309E1
4.618335333E0,7.463329926E0,-3.930227051E0,-1.042507095E1,1.341007392E1
4.628303333E0,7.893086243E0,-2.624941406E0,-9.414073334E0,1.256248003E1
4.638272333E0,8.321645050E0,-1.541943512E0,-8.247698822E0,1.181744059E1
4.648241333E0,9.311536560E0,-9.837542725E-1,-6.916367340E0,1.164081710E1
4.658210333E0,1.142124939E1,-6.929090881E-1,-5.570815430E0,1.272631310E1
4.668178333E0,1.323682388E1,-4.809498596E-1,-3.760180664E0,1.376894251E1
4.678147333E0,1.388243134E1,-6.762936401E-1,-1.732048187E0,1.400640082E1
4.688116333E0,1.342408447E1,-1.098116455E0,-8.434959412E-1,1.349530989E1
4.698084333E0,1.392494293E1,-5.598358154E-1,-1.600172424E0,1.402775832E1
4.708053333E0,1.588466766E1,5.438191223E-1,-2.610720978E0,1.610696340E1
4.718022333E0,1.602537506E1,8.622070313E-1,-1.891316986E0,1.615961407E1
4.727990333E0,1.375399841E1,4.206253052E-2,-7.363188171E-1,1.377375791E1
4.737959333E0,1.034678375E1,-9.542655945E-1,-6.942562866E-1,1.041386329E1
4.747928333E0,5.810018005E0,-9.330097961E-1,-6.312373352E-1,5.918215700E0
4.757897333E0,2.418969727E-1,9.235794067E-2,-1.790277100E-1,3.147936713E-1
4.767865333E0,-2.710713043E0,7.580236816E-1,-6.532415771E-1,2.889513742E0
4.777834333E0,-2.589315491E0,1.737886047E-1,-2.430495758E0,3.555568424E0
4.787803333E0,-1.844913483E0,-1.666634216E0,-4.079766083E0,4.777642375E0
4.797771333E0,-3.815565491E-1,-3.696562958E0,-4.389322357E0,5.751201079E0
4.807740333E0,2.174528046E0,-5.599855042E0,-4.084406433E0,7.264249763E0
4.817709333E0,4.460125122E0,-7.328909454E0,-4.327949982E0,9.609202929E0
4.827678333E0,6.027366028E0,-8.043074341E0,-4.680915985E0,1.108743255E1
4.837646333E0,8.784482574E0,-8.403674469E0,-3.296894073E0,1.259596718E1
4.847615333E0,1.146286285E1,-8.014483795E0,-1.055006104E0,1.402648257E1
4.857584333E0,1.230650848E1,-6.770121460E0,9.220825195E-2,1.404610971E1
4.867552333E0,1.130748596E1,-5.154381409E0,1.281185760E0,1.249273082E1
4.877521333E0,9.710756378E0,-4.122577057E0,1.413660278E0,1.064391218E1
4.887490333E0,8.483458557E0,-4.374952240E0,-1.318757629E0,9.635787351E0
4.897458333E0,7.213798828E0,-5.426365814E0,-4.251159668E0,9.977810281E0
4.907427333E0,6.588549042E0,-6.563551025E0,-6.486161957E0,1.133840718E1
4.917396333E0,8.046367493E0,-7.783065033E0,-7.503296814E0,1.347663141E1
4.927365333E0,9.397607574E0,-8.356971588E0,-6.095175018E0,1.397516228E1
4.937333333E0,1.134520752E1,-7.435487823E0,-4.486021271E0,1.428721805E1
4.947302333E0,1.187525528E1,-5.860463104E0,-3.948040009E0,1.381860107E1
4.957271333E0,1.077189972E1,-3.903432770E0,-2.916085968E0,1.182261258E1
4.967239333E0,9.612410889E0,-2.323019257E0,-2.152823181E0,1.012074647E1
4.977208333E0,8.911418610E0,-1.897603912E0,-1.772613831E0,9.282049452E0
4.987177333E0,8.365503845E0,-2.581531677E0,-1.440304871E0,8.872453917E0
4.997145333E0,7.896080017E0,-3.691174164E0,-1.334774323E0,8.817849445E0
5.007114333E0,7.834258575E0,-4.355492706E0,-1.877845001E0,9.158178093E0
5.017083333E0,7.851772156E0,-4.594395905E0,-3.824247437E0,9.868316380E0
5.027052333E0,7.973169708E0,-4.448449402E0,-6.244564362E0,1.106140684E1
5.037020333E0,8.619824982E0,-3.989503784E0,-8.038284302E0,1.244313215E1
5.046989333E0,9.621841278E0,-3.672912140E0,-8.851992188E0,1.358042263E1
5.056958333E0,1.072998688E1,-3.647614746E0,-8.852590942E0,1.438075374E1
5.066926333E0,1.216146011E1,-3.508404236E0,-7.904163208E0,1.492266090E1
5.076895333E0,1.310824127E1,-3.581602020E0,-6.760840759E0,1.517770833E1
5.086864333E0,1.266216888E1,-3.879781952E0,-5.964646454E0,1.452447025E1
5.096833333E0,1.040995239E1,-3.707340546E0,-5.196294250E0,1.221118162E1
5.106801333E0,9.623188477E0,-3.766317902E0,-5.060227203E0,1.150638111E1
5.116770333E0,7.097041626E0,-3.023861847E0,-5.381459198E0,9.405947236E0
5.126739333E0,6.011798401E0,-3.046464844E0,-8.050109711E0,1.049890158E1
5.136707333E0,5.549260254E0,-3.294349365E0,-8.842112732E0,1.094668830E1
5.146676333E0,5.943540344E0,-3.455264740E0,-8.300089874E0,1.077757014E1
5.156645333E0,7.480095062E0,-5.102738800E0,-8.941506042E0,1.272557644E1
5.166614333E0,9.510622559E0,-6.798712006E0,-9.037157135E0,1.477648928E1
5.176582333E0,1.183109711E1,-7.280260620E0,-4.856051788E0,1.471591969E1
5.186551333E0,1.450079544E1,-1.348590591E1,-7.193590851E0,2.106870846E1
5.196520333E0,1.336301147E1,-1.641411667E1,-6.211034088E0,2.205833734E1
5.206488333E0,9.874964905E0,-1.498129623E1,-3.579057312E0,1.829655213E1
5.216457333E0,7.440277863E0,-1.252924530E1,-3.574716339E0,1.500394346E1
5.226426333E0,6.462660828E0,-9.412127380E0,-3.266507263E0,1.187536090E1
5.236394333E0,6.158343658E0,-7.201973419E0,-2.328258362E0,9.757786877E0
5.246363333E0,6.696624298E0,-5.958359528E0,-1.164428558E0,9.038955643E0
5.256332333E0,8.249195709E0,-5.077142029E0,3.188369751E-1,9.691659200E0
5.266301333E0,1.035830978E1,-3.550766144E0,3.110082550E0,1.138310745E1
5.276269333E0,1.038525375E1,-2.853815460E0,4.685855713E0,1.174542473E1
5.286238333E0,8.183033295E0,-3.778742065E0,5.652545471E0,1.063918210E1
5.296207333E0,6.603517914E0,-5.016069031E0,7.832013245E0,1.140648188E1
5.306175333E0,5.392536163E0,-5.420527954E0,4.466262360E0,8.854889555E0
5.316144333E0,6.056255951E0,-4.163142700E0,4.168830872E-1,7.360963578E0
5.326113333E0,7.147337036E0,-3.402873688E0,-3.963757324E0,8.852985269E0
5.336082333E0,7.151678009E0,-2.803669739E0,-6.473139038E0,1.004532684E1
5.346050333E0,6.860683136E0,-1.628164215E0,-4.493505707E0,8.361308829E0
5.356019333E0,7.761210480E0,5.538482666E-2,-1.578916626E0,7.920380881E0
5.365988333E0,7.640860748E0,8.431965637E-1,-8.358618164E-1,7.732554455E0
5.375956250E0,7.041207733E0,1.218017120E0,-2.601290588E0,7.604530543E0
5.385925250E0,5.607938232E0,1.825304260E0,-3.802991638E0,7.017367901E0
5.395894250E0,4.967719574E0,3.227588196E0,-3.460653534E0,6.860880862E0
5.405862250E0,7.761210480E0,5.180277557E0,-3.096161499E0,9.831473934E0
5.415831250E0,1.147528702E1,4.572990417E0,-3.804189148E0,1.292541328E1
5.425800250E0,1.320149734E1,7.655081177E-1,-5.006488953E0,1.413967703E1
5.435769250E0,1.278236893E1,-2.488724670E0,-3.886068878E0,1.358985788E1
5.445737250E0,1.088940536E1,-3.910617828E0,-2.250270538E0,1.178710306E1
5.455706250E0,7.690407715E0,-4.879552917E0,-3.284170532E0,9.681848149E0
5.465675250E0,5.169649658E0,-4.865631866E0,-6.743027802E0,9.791224386E0
5.475643250E0,4.194277954E0,-3.793860626E0,-9.478589172E0,1.103761744E1
5.485612250E0,4.551435242E0,-2.644251251E0,-1.039213943E1,1.164921411E1
5.495581250E0,5.132975922E0,-2.633623352E0,-1.000235001E1,1.154687921E1
5.505549250E0,5.660478973E0,-3.838018799E0,-8.097261658E0,1.059891772E1
5.515518250E0,6.675069122E0,-4.556374969E0,-5.456153870E0,9.751241752E0
5.525487250E0,7.192393341E0,-5.566923523E0,-3.172353058E0,9.632496219E0
5.535456250E0,8.305927734E0,-6.305337982E0,-1.364113312E0,1.051696381E1
5.545424250E0,9.900112610E0,-6.881190491E0,-3.339555359E-1,1.206128262E1
5.555393250E0,1.076366684E1,-7.324568481E0,-2.643502808E-1,1.302212380E1
5.565362250E0,1.058164536E1,-6.814429321E0,-1.515448608E0,1.267691800E1
5.575330250E0,9.748627625E0,-6.539900208E0,-2.486179962E0,1.199946358E1
5.585299250E0,5.987698517E0,-7.619604950E0,-4.195026398E0,1.055978975E1
5.595268250E0,8.704399109E-1,-8.909772034E0,-7.613767090E0,1.175207014E1
5.605237250E0,3.619473267E-1,-8.734037476E0,-9.071884918E0,1.259815512E1
5.615205250E0,2.539918213E0,-7.613767090E0,-7.950267334E0,1.129722906E1
5.625174250E0,4.552632751E0,-6.726711731E0,-6.547534332E0,1.043289612E1
5.635143250E0,6.281088409E0,-6.459966431E0,-5.924380188E0,1.078339086E1
5.645111250E0,8.068072357E0,-6.817722473E0,-5.811664581E0,1.205614269E1
5.655080250E0,9.181007996E0,-6.919810181E0,-5.567671967E0,1.277394426E1
5.665049250E0,9.433981934E0,-6.735094299E0,-4.994962921E0,1.262185267E1
5.675017250E0,8.732091522E0,-7.083419952E0,-4.324656830E0,1.204686338E1
5.684986250E0,7.447163544E0,-8.333620148E0,-4.347858582E0,1.199222014E1
5.694955250E0,6.534661102E0,-9.673483887E0,-4.528832245E0,1.252151779E1
5.704924250E0,7.081473999E0,-1.029259644E1,-2.284549255E0,1.270055041E1
5.714892250E0,8.258027344E0,-9.760752411E0,-2.357597351E-1,1.278760673E1
5.724861250E0,8.036488037E0,-9.131760406E0,-8.213420105E-1,1.219216104E1
5.734830250E0,7.296876068E0,-8.794062653E0,-2.658471680E0,1.173232330E1
5.744798250E0,5.947731628E0,-8.951086121E0,-3.886368256E0,1.142809313E1
5.754767250E0,5.380710754E0,-8.879983978E0,-4.172872467E0,1.119013084E1
5.764736250E0,6.940766602E0,-8.377478943E0,-3.431164856E0,1.140742244E1
5.774705250E0,8.180638275E0,-8.511450348E0,-1.043779449E0,1.185146004E1
5.784673250E0,9.650132446E0,-9.207203522E0,1.767374725E0,1.345441438E1
5.794642250E0,1.203512283E1,-9.912087708E0,4.733456726E0,1.629414855E1
5.804611250E0,1.228360611E1,-9.184750214E0,5.430407410E0,1.627070804E1
5.814579250E0,1.031250504E1,-7.113208008E0,3.177143097E0,1.292438496E1
5.824548250E0,1.030981064E1,-4.778063965E0,3.976031799E0,1.203872583E1
5.834517250E0,1.124701172E1,-4.334685974E0,2.357597351E-1,1.205571888E1
5.844485250E0,1.154100037E1,-4.429139557E0,-2.095642090E0,1.253808927E1
5.854454250E0,1.040052200E1,-5.043761444E0,-2.134261780E0,1.175438049E1
5.864423250E0,9.042246552E0,-6.680757294E0,-1.498533783E0,1.134197268E1
5.874392250E0,9.696386261E0,-7.706424408E0,-2.147584076E0,1.257064044E1
5.884360250E0,9.305698700E0,-6.612648926E0,-4.163292389E0,1.215138501E1
5.894329250E0,8.719367981E0,-6.047424316E0,-8.196654968E0,1.340835081E1
5.904298250E0,8.445287933E0,-5.965993652E0,-5.945336609E0,1.192740525E1
5.914266250E0,8.371341705E0,-5.792504425E0,-2.334245911E0,1.044419329E1
5.924235250E0,7.840545502E0,-6.290369110E0,-1.084494781E0,1.011034254E1
5.934204250E0,7.360194397E0,-5.467679901E0,-3.101101227E0,9.679091583E0
5.944173250E0,5.912405090E0,-4.780009918E0,-4.040098572E0,8.609728523E0
5.954141250E0,4.049678650E0,-5.465434570E0,-3.446133728E0,7.625398998E0
5.964110250E0,3.265309753E0,-6.336622925E0,-2.784958649E0,7.653171405E0
5.974079250E0,2.443219299E0,-6.839127960E0,-3.014281769E0,7.863134641E0
5.984047250E0,4.640350342E-1,-7.016359406E0,-3.852089539E0,8.017681812E0
5.994016250E0,-9.744735718E-2,-6.080954590E0,-5.525459747E0,8.216946521E0
6.003985250E0,5.043013000E-1,-4.863685913E0,-4.625980225E0,6.731229717E0
6.013953250E0,3.813320160E0,-3.165916443E0,-2.715203705E0,5.651262578E0
6.023922250E0,7.236551514E0,-2.433788910E0,-6.529421997E-1,7.662724045E0
6.033891250E0,7.932454376E0,-2.889441376E0,5.037025452E-1,8.457329374E0
6.043860250E0,5.797893219E0,-3.574416962E0,-2.924917603E-1,6.817446283E0
6.053828250E0,5.571563873E0,-2.636317749E0,-1.862876129E0,6.439161649E0
6.063797250E0,6.871610413E0,7.110214233E-2,-4.017495575E0,7.960173106E0
6.073766250E0,6.017935638E0,1.330133972E0,-5.127287750E0,8.017099563E0
6.083734250E0,4.231999512E0,1.452878723E0,-5.646408234E0,7.204346077E0
6.093703250E0,5.470523987E0,1.127305756E0,-5.150788879E0,7.597899515E0
6.103672250E0,8.117469635E0,-6.551875305E-1,-3.984564056E0,9.066384875E0
6.113641250E0,1.093146790E1,-1.759890289E0,-1.488354950E0,1.117181295E1
6.123609250E0,1.198333054E1,-3.546874237E0,1.344204712E-1,1.249794369E1
6.133578250E0,1.245215561E1,-3.788022766E0,9.903405762E-1,1.305320153E1
6.143547250E0,1.108819199E1,-2.647993469E0,7.852670288E-1,1.142700815E1
6.153515250E0,1.009889923E1,-1.936972046E0,-4.869374084E-1,1.029450020E1
6.163484250E0,8.515042877E0,-2.359842682E0,-1.783092041E0,9.014112819E0
6.173453250E0,8.851393433E0,-1.813179474E0,-4.565056915E0,1.012297042E1
6.183421250E0,1.009994705E1,-1.043629761E0,-6.922055511E0,1.228873248E1
6.193390250E0,1.146450943E1,-3.151396637E0,-1.148292114E1,1.652948140E1
6.203359250E0,1.160282181E1,-5.337750092E0,-1.462024704E1,1.941310571E1
6.213328250E0,1.244407242E1,-5.243895264E0,-8.315657501E0,1.585886300E1
6.223296250E0,1.438358917E1,-3.571722565E0,-3.256478119E0,1.517397408E1
6.233265250E0,1.135179382E1,-4.477788391E0,-4.085005188E0,1.286860829E1
6.243234250E0,7.545958099E0,-6.353687439E0,-3.222947845E0,1.037777532E1
6.253202250E0,7.244784393E0,-6.656208344E0,-1.128054199E0,9.902752986E0
6.263171250E0,8.414152679E0,-6.989714813E0,-8.783734131E-1,1.097386069E1
6.273140250E0,1.187315964E1,-7.003186798E0,-2.980003052E0,1.410308347E1
6.283108250E0,1.572599762E1,-5.415588226E0,-4.366719360E0,1.719604126E1
6.293077250E0,1.439032516E1,-6.757846985E0,1.009800110E0,1.593014910E1
6.303046250E0,1.195803314E1,-5.804928589E0,4.121080170E0,1.391671852E1
6.313015250E0,1.127171036E1,-4.066593475E0,2.855911102E0,1.231847657E1
6.322983250E0,1.085018692E1,-3.832330627E0,8.038284302E-1,1.153513998E1
6.332952250E0,9.303004303E0,-3.794609070E0,1.194515991E-1,1.004784632E1
6.342921250E0,7.396568756E0,-3.940256195E0,5.224136353E-1,8.396890154E0
6.352889250E0,7.070995789E0,-4.625082092E0,-1.481918335E-1,8.450581437E0
6.362858250E0,7.704927521E0,-5.195246429E0,-2.110311584E0,9.529423306E0
6.372827458E0,9.692194977E0,-5.081033936E0,-3.327280884E0,1.143793458E1
6.382796458E0,1.151705017E1,-5.067412262E0,-3.267555084E0,1.299992415E1
6.392764458E0,1.129326553E1,-5.629343719E0,-2.445913696E0,1.285339842E1
6.402733458E0,1.051293823E1,-5.566474457E0,-1.344504089E0,1.197143264E1
6.412702458E0,9.808952179E0,-5.320835266E0,-5.891748047E-1,1.117470168E1
6.422670458E0,8.882528687E0,-4.987478485E0,-2.402503967E-1,1.018979773E1
6.432639458E0,7.735014954E0,-4.622387695E0,-5.818400574E-1,9.029698898E0
6.442608458E0,7.583380280E0,-3.873644714E0,-1.128353577E0,8.589875531E0
6.452576458E0,7.918533325E0,-2.808160400E0,-1.962119751E0,8.627795128E0
6.462545458E0,7.254514160E0,-2.717149658E0,-2.507884827E0,8.142503563E0
6.472514458E0,5.283113708E0,-4.282594299E0,-3.197650452E0,7.515109633E0
6.482483458E0,2.639461212E0,-6.403833160E0,-3.732039185E0,7.867906400E0
6.492451458E0,-1.044527893E0,-8.414452057E0,-3.493285675E0,9.170446377E0
6.502420458E0,6.602769470E-1,-7.798632660E0,-8.858428802E0,1.182059211E1
6.512389458E0,6.103557587E0,-5.017715607E0,-9.631121979E0,1.245750359E1
6.522357458E0,5.525759125E0,-5.151537323E0,-6.967860260E0,1.027732588E1
6.532326458E0,4.713997192E0,-3.921844482E0,-5.028792572E0,7.930409095E0
6.542295458E0,4.474644928E0,-3.485202484E0,-3.439697113E0,6.633294793E0
6.552263458E0,3.508553925E0,-5.223387909E0,-4.930746460E0,7.994122375E0
6.562232458E0,4.688999176E0,-6.937024384E0,-6.598278809E0,1.066050204E1
6.572201458E0,5.240751801E0,-8.252189484E0,-4.869224396E0,1.092123880E1
6.582170458E0,5.954617310E0,-7.694000244E0,-3.213966522E0,1.024620358E1
6.592138458E0,7.667954407E0,-5.907016296E0,-3.486699371E0,1.028821845E1
6.602107458E0,8.664881287E0,-4.531526642E0,-4.868475952E0,1.092323027E1
6.612076458E0,7.918084259E0,-4.730612640E0,-5.861211548E0,1.092833725E1
6.622044458E0,7.320975952E0,-5.323829041E0,-6.456972656E0,1.111900807E1
6.632013458E0,7.532186737E0,-5.195096741E0,-6.456673279E0,1.119872747E1
6.641982458E0,7.666008453E0,-4.863087158E0,-4.955145721E0,1.034266752E1
6.651951458E0,7.395371246E0,-4.616400146E0,-4.086502075E0,9.628196373E0
6.661919458E0,7.329807587E0,-5.100643158E0,-3.556604004E0,9.612079480E0
6.671888458E0,7.372917938E0,-6.228697357E0,-3.219355316E0,1.017451907E1
6.681857458E0,7.654183044E0,-6.453380127E0,-2.600691833E0,1.034389826E1
6.691825458E0,8.184679871E0,-5.384303284E0,-3.682492218E0,1.046615762E1
6.701794458E0,8.541238403E0,-4.678520966E0,-5.904321899E0,1.138869303E1
6.711763458E0,8.047714691E0,-4.892575836E0,-7.223678284E0,1.186947926E1
6.721731458E0,7.806566162E0,-5.845194855E0,-8.000113678E0,1.261390491E1
6.731700458E0,8.688831482E0,-6.857839050E0,-7.854017487E0,1.357244781E1
6.741669458E0,1.017718643E1,-6.749913483E0,-6.065087585E0,1.363531236E1
6.751638458E0,1.159952866E1,-6.421047363E0,-4.151317291E0,1.389288845E1
6.761606458E0,1.345956070E1,-5.541027374E0,-3.838767242E0,1.505320207E1
6.771575458E0,1.443672867E1,-3.667223969E0,-4.542004852E0,1.557233041E1
6.781544458E0,1.124102417E1,-4.096830597E0,-2.548450470E0,1.223271209E1
6.791512458E0,7.810158691E0,-4.502337341E0,-2.840493164E0,9.451879270E0
6.801481458E0,7.871680756E0,-5.560187531E0,-4.583169250E0,1.067166733E1
6.811450458E0,9.843679962E0,-6.353837128E0,-5.380411377E0,1.289256018E1
6.821418458E0,1.180520096E1,-5.826034698E0,-3.335214386E0,1.358046777E1
6.831387458E0,1.358949051E1,-5.038672028E0,1.157093811E-1,1.449399382E1
6.841356458E0,1.385952896E1,-3.513343964E0,2.497256927E0,1.451435224E1
6.851325458E0,1.276874725E1,-1.731299744E0,3.794160004E0,1.343257069E1
6.861293458E0,1.100391724E1,3.957769775E-1,5.059179382E0,1.211767841E1
6.871262458E0,9.215137024E0,1.999541931E0,4.036655731E0,1.025726610E1
6.881231458E0,6.101461945E0,2.448757782E0,-1.081051941E0,6.662801651E0
6.891199458E0,1.842668152E0,1.980980530E0,-5.134772186E0,5.803929288E0
6.901168458E0,1.355880432E0,1.688039703E0,-6.099815369E0,6.472683935E0
6.911137458E0,3.202290802E0,1.366957397E0,-5.088368683E0,6.165609034E0
6.921106458E0,4.318070526E0,2.636018372E-1,-4.948858795E0,6.573159238E0
6.931074458E0,5.074148254E0,-2.681224365E0,-4.578828278E0,7.341771789E0
6.941043458E0,6.287974091E0,-6.103557587E0,-3.679648132E0,9.504306590E0
6.951012458E0,9.050180054E0,-6.429130554E0,-4.153862000E-1,1.110909647E1
6.960980458E0,1.193557983E1,-4.529281311E0,3.162772980E0,1.315201840E1
6.970949458E0,1.319431229E1,-2.710713043E0,2.916684723E0,1.378204962E1
6.980918458E0,1.262459702E1,-1.213526459E0,1.201551361E0,1.273957699E1
6.990886458E0,1.095302307E1,-1.609004059E0,-1.066681824E0,1.112184421E1
7.000855458E0,8.716673584E0,-1.997895355E0,-3.484004974E0,9.597409801E0
7.010824458E0,7.457192688E0,-1.224603424E0,-5.137915649E0,9.138246744E0
7.020793458E0,6.843019867E0,-7.427554321E-1,-6.033054199E0,9.152942123E0
7.030761458E0,6.145769806E0,-9.123527527E-1,-5.811664581E0,8.507544843E0
7.040730458E0,7.464527435E0,-8.490344238E-1,-4.928052063E0,8.984749658E0
7.050699458E0,9.903106384E0,-8.611592102E-1,-3.792064362E0,1.063921347E1
7.060667458E0,1.183903061E1,-8.030799866E-1,-2.075134735E0,1.204631759E1
7.070636458E0,1.205832458E1,-1.452579346E0,-4.150868225E-1,1.215259131E1
7.080605458E0,1.065948349E1,-2.197580109E0,1.871109009E-2,1.088367110E1
7.090574458E0,8.262218628E0,-2.171534271E0,-6.827302551E-1,8.570060580E0
7.100542458E0,5.293741608E0,-2.541115723E0,-1.739832001E0,6.124376272E0
7.110511458E0,2.604583740E0,-2.701881409E0,-2.525548096E0,4.523539852E0
7.120480458E0,1.043330383E0,-2.396217041E0,-2.945574646E0,3.937868001E0
7.130448458E0,1.705104218E0,-1.682501221E0,-2.970572662E0,3.816083423E0
7.140417458E0,4.620142365E0,1.544787598E-1,-3.468736725E0,5.779421565E0
7.150386458E0,8.405919800E0,1.885479126E0,-3.163222046E0,9.177172382E0
7.160354458E0,1.118953125E1,7.429051208E-1,-2.694396973E0,1.153331230E1
7.170323458E0,1.173664352E1,-9.189390564E-1,-2.710862732E0,1.208064679E1
7.180292458E0,1.014500336E1,-2.545307007E0,-3.269501038E0,1.095852718E1
7.190261458E0,7.156018982E0,-4.220922546E0,-3.501368866E0,9.015784977E0
7.200229458E0,4.455335083E0,-4.983137512E0,-4.196074219E0,7.892319622E0
7.210198458E0,4.226161652E0,-4.564607849E0,-4.478836212E0,7.665250220E0
7.220167458E0,4.978796539E0,-3.857328644E0,-4.561015320E0,7.776262598E0
7.230135458E0,4.924160156E0,-4.616998901E0,-4.611161041E0,8.174768391E0
7.240104458E0,6.031856689E0,-4.854255524E0,-3.315006409E0,8.422372546E0
7.250073458E0,8.882828064E0,-3.025807800E0,-1.797911224E0,9.554717789E0
7.260042458E0,1.090991272E1,-2.302212524E0,-2.795436859E0,1.149525316E1
7.270010458E0,1.184307220E1,-1.980531464E0,-4.607269135E0,1.286109610E1
7.279979458E0,9.694889374E0,-1.544937286E0,-7.256310425E0,1.220785617E1
7.289948458E0,5.727838898E0,-2.886297913E0,-1.030337402E1,1.213665400E1
7.299916458E0,4.880151672E0,-6.729406128E0,-1.147244293E1,1.416748863E1
7.309885458E0,7.696994019E0,-9.654174042E0,-1.054931259E1,1.623991347E1
7.319854458E0,1.134760254E1,-1.014350647E1,-7.582033081E0,1.700429453E1
7.329822458E0,1.516271896E1,-9.320218506E0,9.801617432E-1,1.782512935E1
7.339791458E0,2.042083466E1,-8.154742126E0,2.375559998E0,2.211681696E1
7.349760458E0,2.233520370E1,-8.410410461E0,1.292113037E0,2.390116911E1
7.359729458E0,1.902393951E1,-8.209378510E0,4.532574463E-1,2.072461369E1
7.369697458E0,1.345237564E1,-7.533533936E0,-1.843416595E0,1.552799822E1
7.379666125E0,9.307195587E0,-7.359745331E0,-2.460732880E0,1.211795970E1
7.389635125E0,7.350464630E0,-7.547005920E0,-2.849624176E0,1.091361474E1
7.399603125E0,8.020171967E0,-7.149881744E0,-2.319875793E0,1.099207856E1
7.409572125E0,1.045081741E1,-6.191424866E0,-7.006929016E-1,1.216734552E1
7.419541125E0,1.285556671E1,-5.645510101E0,-1.134640503E-1,1.404102040E1
7.429509125E0,1.478580276E1,-5.038672028E0,1.544787598E-1,1.562152499E1
7.439478125E0,1.543365555E1,-4.161196747E0,9.690847778E-1,1.601413149E1
7.449447125E0,1.437790100E1,-2.898123322E0,8.466394043E-1,1.469149258E1
7.459416125E0,1.393093048E1,-1.807341614E0,-9.153465271E-1,1.407747019E1
7.469384125E0,1.448747314E1,-1.061742096E0,-2.254461823E0,1.470023036E1
7.479353125E0,1.407837387E1,-3.637435913E-1,-2.662213898E0,1.433249117E1
7.489322125E0,1.421818314E1,1.164578247E-1,-3.380570068E0,1.461501105E1
7.499290125E0,1.629361725E1,5.878276062E-1,-3.029400330E0,1.658326779E1
7.509259125E0,1.614452728E1,-2.300715637E-1,-3.475472717E0,1.651598028E1
7.519228125E0,1.372091721E1,-1.231788483E0,-3.349285126E0,1.417739689E1
7.529196125E0,1.245919098E1,-8.414002991E-1,-2.843187561E0,1.280715073E1
7.539165125E0,1.094958023E1,-4.637356567E-1,-2.202968903E0,1.117861485E1
7.549134125E0,9.825268250E0,-4.734654236E-1,-2.166744232E0,1.007247965E1
7.559103125E0,8.855435028E0,-1.489402771E0,-2.294428711E0,9.268303688E0
7.569071125E0,7.246730347E0,-2.591860199E0,-2.402204590E0,8.062470273E0
7.579040125E0,5.100942535E0,-3.844605103E0,-3.598816223E0,7.331581095E0
7.589009125E0,2.521506500E0,-4.854704590E0,-4.915029144E0,7.354159583E0
7.598977125E0,-3.489244080E-1,-5.152734833E0,-5.805377655E0,7.770124466E0
7.608946125E0,-2.575095062E0,-5.024301910E0,-6.386918335E0,8.524520519E0
7.618915125E0,-3.951333160E0,-4.989424438E0,-6.389912109E0,9.018778561E0
7.628884125E0,-4.796475677E0,-5.716312866E0,-6.487958221E0,9.888175443E0
7.638852125E0,-4.227508850E0,-6.528673553E0,-6.601571960E0,1.020177248E1
7.648821125E0,-2.199376373E0,-6.763684845E0,-5.201084290E0,8.811127448E0
7.658790125E0,-2.709365845E-1,-7.870632935E0,-4.437372437E0,9.039388451E0
7.668758125E0,8.969348145E-1,-9.585466919E0,-5.058880005E0,1.087556596E1
7.678727125E0,2.710862732E0,-8.437504120E0,-4.839136963E0,1.009740061E1
7.688696125E0,4.856500854E0,-8.033045197E0,-4.841232605E0,1.056186294E1
7.698664125E0,6.961872711E0,-8.447533264E0,-5.671406250E0,1.232855785E1
7.708633125E0,8.744216309E0,-9.270222473E0,-6.814579010E0,1.445118786E1
7.718602125E0,9.646988983E0,-9.845775604E0,-6.455775146E0,1.522106194E1
7.728571125E0,1.033286270E1,-1.045560745E1,-5.472020874E0,1.568536870E1
7.738539125E0,1.147588577E1,-1.026909531E1,-4.299209747E0,1.598854206E1
7.748508125E0,1.222792191E1,-9.749675446E0,-2.535726929E0,1.584323693E1
7.758477125E0,1.220037918E1,-9.742939453E0,-5.457650757E-1,1.562280323E1
7.768445125E0,1.264151184E1,-9.905501404E0,8.138575745E-1,1.608070719E1
7.778414125E0,1.359338242E1,-9.766141205E0,1.480271759E0,1.680323671E1
7.788383125E0,1.422551788E1,-9.959389343E0,1.381177826E0,1.742017357E1
7.798352125E0,1.441427536E1,-1.037028488E1,8.741821289E-1,1.777859210E1
7.808320125E0,1.383782410E1,-1.004096970E1,1.185534668E0,1.713802616E1
7.818289125E0,1.423494827E1,-7.867339783E0,1.473236389E0,1.633092811E1
7.828258125E0,1.660287415E1,-4.423750763E0,4.049079895E-1,1.718688311E1
7.838226125E0,1.702379883E1,-2.483934631E0,-4.812492371E-1,1.721078902E1
7.848195125E0,1.595576981E1,-2.079924774E0,-1.359922028E0,1.614812884E1
7.858164125E0,1.457204727E1,-2.133663025E0,-2.828368378E0,1.499655785E1
7.868132125E0,1.290765839E1,-2.299218750E0,-4.439019012E0,1.384192695E1
7.878101125E0,1.114148117E1,-2.325563965E0,-4.956193542E0,1.241389161E1
7.888070125E0,1.009336075E1,-1.760489044E0,-3.861370239E0,1.094922066E1
7.898039125E0,9.727222137E0,-1.949096832E0,-3.549119568E0,1.053632188E1
7.908007125E0,9.445657654E0,-2.658022614E0,-3.515140228E0,1.042313502E1
7.917976125E0,8.769962769E0,-3.296894073E0,-3.685485992E0,1.006799704E1
7.927945125E0,7.244035950E0,-3.795357513E0,-3.212170258E0,8.786286659E0
7.937913125E0,6.041586456E0,-3.591182098E0,-2.254611511E0,7.381099433E0
7.947882125E0,5.773943024E0,-2.569107513E0,-3.757186890E0,7.352223118E0
7.957851125E0,4.582121429E0,-2.010469208E0,-6.193071442E0,7.961906625E0
7.967820125E0,7.719447327E0,1.601669312E-2,-6.377787323E0,1.001330588E1
7.977788125E0,1.322110657E1,1.223256226E0,-4.749323730E0,1.410142158E1
7.987757125E0,1.646276550E1,8.089178467E-1,-1.803449707E0,1.658099596E1
7.997726125E0,1.610665604E1,2.993774414E-2,7.593110046E0,1.780675673E1
8.007694125E0,1.511227386E1,5.710624695E-1,1.229483276E1,1.949025003E1
8.017663125E0,1.274300079E1,-3.121009827E-1,4.752916260E0,1.360410560E1
8.027632125E0,1.083476898E1,-1.280437317E0,1.472188568E0,1.100904527E1
8.037600125E0,8.877888336E0,-1.902843018E0,1.324595490E0,9.175634369E0
8.047569125E0,7.875572662E0,-1.798210602E0,5.776487732E-1,8.098881666E0
8.057538125E0,7.371570740E0,-1.858086090E0,-2.300715637E-1,7.605621080E0
8.067507125E0,7.613916779E0,-1.898951111E0,1.264420624E0,7.948364835E0
8.077475125E0,6.524332581E0,-1.678609314E0,-6.538403320E-1,6.768467480E0
8.087444125E0,3.923940125E0,-1.131197662E0,-3.132835236E0,5.146996295E0
8.097413125E0,4.501139832E0,-1.214424591E0,-3.453618164E0,5.801944958E0
8.107381125E0,7.144492950E0,-2.026336212E0,-3.979624329E0,8.425391846E0
8.117350125E0,9.601633301E0,-2.251767426E0,-5.732778625E0,1.140730333E1
8.127319125E0,1.137424713E1,-1.586999817E0,-5.259762268E0,1.263159394E1
8.137288125E0,1.231878296E1,-7.530839539E-1,-4.350103912E0,1.308598308E1
8.147256125E0,1.277608200E1,-3.043171692E-1,-5.131778412E0,1.377156599E1
8.157225125E0,1.157138718E1,-1.014590149E0,-6.181395721E0,1.315811717E1
8.167194125E0,9.868378601E0,-2.179318085E0,-7.738457794E0,1.272863121E1
8.177162125E0,8.140372009E0,-2.692451019E0,-9.466165009E0,1.277197044E1
8.187131125E0,6.543043671E0,-3.101550293E0,-1.018526962E1,1.249682968E1
8.197100125E0,6.622827759E0,-3.562741241E0,-1.015652939E1,1.263764463E1
8.207068125E0,8.024063873E0,-3.178190918E0,-9.805209961E0,1.306248984E1
8.217037125E0,8.807684326E0,-3.420087891E0,-9.303303680E0,1.325985534E1
8.227006125E0,1.059287201E1,-2.493514709E0,-7.749385071E0,1.335962282E1
8.236975125E0,1.311183380E1,-7.768844604E-1,-6.321204987E0,1.457674064E1
8.246943125E0,1.403466476E1,-2.624043274E-1,-6.457272034E0,1.545111754E1
8.256912125E0,1.447130676E1,-7.783813477E-2,-7.628436584E0,1.635902879E1
8.266881125E0,1.177870605E1,9.827064514E-1,-7.187303925E0,1.383332809E1
8.276849125E0,8.415200500E0,1.192420349E0,-5.619314575E0,1.018892350E1
8.286818125E0,5.303471375E0,-4.349954224E-1,-4.432283020E0,6.925399801E0
8.296787125E0,2.936593323E0,-2.743345184E0,-3.271896057E0,5.182164312E0
8.306755125E0,1.959425354E0,-4.678820343E0,-1.358425140E0,5.251288069E0
8.316724125E0,2.399210815E0,-5.185666351E0,-1.796264648E-3,5.713786071E0
8.326693125E0,2.965782623E0,-5.435945892E0,2.887495422E-1,6.199092725E0
8.336662125E0,3.719914398E0,-6.113736420E0,9.345066833E-1,7.217259790E0
8.346630125E0,4.471651154E0,-6.232289886E0,2.898572388E0,8.199928241E0
8.356599125E0,5.173092499E0,-5.741759949E0,3.930077362E0,8.670305726E0
8.366568125E0,5.808521118E0,-5.535937958E0,3.142265625E0,8.617387070E0
8.376536083E0,6.850803680E0,-4.286037140E0,2.427651672E0,8.437838472E0
8.386505083E0,8.658594360E0,-4.843927002E0,2.520758057E-1,9.924637389E0
8.396474083E0,9.274862823E0,-6.924151154E0,-3.003953247E0,1.195787124E1
8.406443083E0,9.802814941E0,-8.616382141E0,-5.185965729E0,1.404391194E1
8.416411083E0,1.220277420E1,-7.653135223E0,-5.547913055E0,1.543559251E1
8.426380083E0,1.456381439E1,-5.746999054E0,-4.305945740E0,1.623803733E1
8.436349083E0,1.560924042E1,-5.709427185E0,-4.544100494E0,1.723063535E1
8.446317083E0,1.873518997E1,-4.127217407E0,-3.091670837E0,1.943192464E1
8.456286083E0,2.454161545E1,-1.628164215E0,2.166444855E0,2.469079364E1
8.466255083E0,2.718347168E1,-2.104623413E-1,1.914518738E0,2.725162030E1
8.476224083E0,2.393492706E1,-5.797444153E-1,-1.405128021E0,2.398314454E1
8.486192083E0,1.740221191E1,-1.348096619E0,-2.629432068E0,1.765129618E1
8.496161083E0,1.279030243E1,-1.093326416E0,-1.510658569E0,1.292552855E1
8.506130083E0,1.072579559E1,-1.371148682E-1,2.877017212E-1,1.073052952E1
8.516098083E0,9.438472595E0,1.214723969E0,1.916764069E0,9.707435488E0
8.526067083E0,8.298143921E0,2.073039093E0,2.609224091E0,8.942300262E0
8.536036083E0,7.399712219E0,2.527643738E0,2.812651062E0,8.309977725E0
8.546004083E0,7.038663025E0,2.763104095E0,2.567311249E0,7.985524934E0
8.555973083E0,7.009773102E0,2.898422699E0,2.176024933E0,7.891315327E0
8.565942083E0,7.021598511E0,2.997217255E0,1.793570251E0,7.842388103E0
8.575911083E0,7.018155670E0,2.551294556E0,9.505233765E-1,7.527755815E0
8.585879083E0,7.292385406E0,2.888692932E0,9.786648560E-1,7.904506099E0
8.595848083E0,7.082521820E0,2.985840912E0,4.487667847E-1,7.699269635E0
8.605817083E0,6.271508331E0,3.215762787E0,-1.657054138E-1,7.049851441E0
8.615785083E0,6.044430542E0,4.063300323E0,-1.508862305E-1,7.284800392E0
8.625754083E0,6.016438751E0,5.338348846E0,-8.915460205E-1,8.092611319E0
8.635723083E0,5.919590149E0,6.767726440E0,-1.843266907E0,9.178306031E0
8.645692083E0,5.907315674E0,7.625891876E0,-3.024610291E0,1.010934581E1
8.655660083E0,5.824238434E0,7.643854523E0,-4.282294922E0,1.052085144E1
8.665629083E0,5.302573242E0,5.708379364E0,-5.309907990E0,9.428573636E0
8.675598083E0,5.676944733E0,3.449426880E0,-5.280569000E0,8.485909277E0
8.685566083E0,7.305558014E0,2.246977386E0,-3.505560150E0,8.408866585E0
8.695535083E0,8.880732422E0,7.659571838E-1,-3.476819916E0,9.567777980E0
8.705504083E0,8.569230194E0,-1.006806335E0,-3.345093842E0,9.253919058E0
8.715472083E0,8.043673096E0,-1.807640991E0,-2.961741028E0,8.760145703E0
8.725441083E0,8.694519653E0,-1.849254456E0,-2.759212189E0,9.307398452E0
8.735410083E0,9.612859955E0,-1.894460449E0,-2.554737396E0,1.012535136E1
8.745379083E0,1.046399002E1,-2.073338470E0,-2.303260345E0,1.091324094E1
8.755347083E0,1.143352386E1,-2.050735474E0,-1.568438416E0,1.172138998E1
8.765316083E0,1.235425919E1,-1.796564026E0,-5.764512634E-1,1.249750609E1
8.775285083E0,1.298908905E1,-1.720222778E0,1.993853760E-1,1.310402058E1
8.785253083E0,1.341570190E1,-1.788031769E0,4.320016479E-1,1.354122375E1
8.795222083E0,1.400203262E1,-1.829495544E0,3.391946411E-1,1.412512034E1
8.805191083E0,1.449016754E1,-1.638043671E0,-2.050735474E-2,1.458247452E1
8.815160083E0,1.403436539E1,-8.089178467E-1,-3.992198181E-1,1.406332594E1
8.825128083E0,1.263522491E1,-3.559597778E-1,-3.541635132E-1,1.264519861E1
8.835097083E0,1.139939484E1,-6.089337158E-1,6.062393188E-2,1.141580826E1
8.845066083E0,1.129610962E1,-6.508465576E-1,7.595205688E-1,1.134030711E1
8.855034083E0,1.212254105E1,-2.406994629E-1,1.611399078E0,1.223153893E1
8.865003083E0,1.299702255E1,3.451821899E-1,2.255359955E0,1.319577184E1
8.874972083E0,1.352123245E1,1.089584198E0,2.928210754E0,1.387751199E1
8.884940083E0,1.376896729E1,1.853745117E0,3.548371124E0,1.433916904E1
8.894909083E0,1.337708221E1,2.403851166E0,3.907474365E0,1.414189467E1
8.904878083E0,1.201760925E1,2.319726105E0,3.830983429E0,1.282499495E1
8.914847083E0,1.018242554E1,1.547481995E0,3.472628632E0,1.086902203E1
8.924815083E0,8.841364288E0,4.800517273E-1,3.600313110E0,9.558369455E0
8.934784083E0,8.831933899E0,1.047821045E-2,3.795656891E0,9.613021243E0
8.944753083E0,9.791139221E0,3.062631226E-1,3.857777710E0,1.052818376E1
8.954721083E0,1.081994980E1,8.776249695E-1,3.836970978E0,1.151363911E1
8.964690083E0,1.140657990E1,1.271156616E0,3.803590393E0,1.209103817E1
8.974659083E0,1.146376099E1,1.186133423E0,3.916904755E0,1.217238150E1
8.984628083E0,1.113833771E1,8.984317017E-1,4.503983917E0,1.204805451E1
8.994596083E0,1.073672287E1,6.535409546E-1,5.151088257E0,1.192635921E1
9.004565083E0,9.736203461E0,4.460723877E-1,5.344785461E0,1.111572625E1
9.014534083E0,8.456364899E0,7.244934082E-2,5.104684753E0,9.877912869E0
9.024502083E0,7.587571564E0,-3.143463135E-1,4.994813232E0,9.089456258E0
9.034471083E0,6.936275940E0,-5.354365540E-1,4.828658752E0,8.468445050E0
9.044440083E0,6.417604523E0,-4.923262024E-1,4.647535400E0,7.938993525E0
9.054409083E0,5.955964508E0,-4.366419983E-1,4.563260651E0,7.515817801E0
9.064377083E0,5.483995972E0,-4.878355408E-1,4.340374146E0,7.010780488E0
9.074346083E0,5.079087982E0,-4.623884583E-1,3.891757050E0,6.415349620E0
9.084315083E0,5.003195801E0,-1.559756470E-1,3.281176758E0,5.985183167E0
9.094283083E0,5.032385101E0,1.435514832E-1,2.710114288E0,5.717536733E0
9.104252083E0,5.079986115E0,2.748284912E-1,2.357597351E0,5.607143202E0
9.114221083E0,5.280569000E0,4.445755005E-1,2.057022400E0,5.684487444E0
9.124190083E0,5.561834106E0,6.469546509E-1,1.617686005E0,5.828332262E0
9.134158083E0,5.980214081E0,8.250842285E-1,1.250499573E0,6.165020164E0
9.144127083E0,6.436165924E0,7.520361328E-1,9.717791748E-1,6.552415197E0
9.154096083E0,7.390730896E0,8.437953186E-1,7.256909180E-1,7.474056531E0
9.164064083E0,8.495882721E0,7.785310364E-1,5.694158936E-1,8.550460119E0
9.174033083E0,9.294022980E0,6.189628601E-1,-1.550775146E-1,9.315901846E0
9.184002083E0,9.743687897E0,7.234455872E-1,-1.003812561E0,9.821938047E0
9.193970083E0,1.000519409E1,9.729766846E-1,-1.131796417E0,1.011590607E1
9.203939083E0,1.034633469E1,1.319955139E0,-6.945556641E-1,1.045329281E1
9.213908083E0,1.045411057E1,1.606459351E0,-4.873864746E-1,1.058804443E1
9.223877083E0,1.019185593E1,1.591640167E0,-4.543052673E-1,1.032538808E1
9.233845083E0,1.007704468E1,1.530716858E0,-4.680766296E-1,1.020338274E1
9.243814083E0,1.028256729E1,1.458716583E0,-5.559439087E-1,1.040039027E1
9.253783083E0,1.048868866E1,1.118923187E0,-6.721023560E-1,1.056959320E1
9.263751083E0,1.038690033E1,4.653822327E-1,-2.216889954E-1,1.039968389E1
9.273720083E0,1.059107574E1,2.499801636E-2,6.340814209E-1,1.061006925E1
9.283689083E0,1.168140839E1,4.842430115E-1,1.561702423E0,1.179528328E1
9.293658083E0,1.269300476E1,1.307081909E0,2.117496643E0,1.293462891E1
9.303626083E0,1.323802139E1,2.266885986E0,1.915716248E0,1.356664849E1
9.313595083E0,1.326915665E1,3.015030212E0,7.131170654E-1,1.362605817E1
9.323564083E0,1.299313065E1,3.696862335E0,-1.132544861E0,1.355621234E1
9.333532083E0,1.247924927E1,4.489314423E0,-1.960922241E0,1.340637245E1
9.343501083E0,1.175280991E1,4.647685089E0,-1.167871399E0,1.269225910E1
9.353470083E0,1.141541153E1,3.621718597E0,4.421804810E-1,1.198432266E1
9.363438083E0,1.218196747E1,2.580932922E0,2.160756683E0,1.263844989E1
9.373407083E0,1.276141251E1,1.818268890E0,3.171005859E0,1.327460090E1
9.383375625E0,1.211296097E1,9.873468018E-1,2.623145142E0,1.243300316E1
9.393344625E0,1.150028503E1,3.805087280E-1,1.893412628E0,1.166131871E1
9.403312625E0,1.045695465E1,-1.418600006E0,1.737886047E0,1.069488543E1
9.413281625E0,1.081081879E1,-1.844015350E0,2.067650299E0,1.116016905E1
9.423250625E0,1.135972733E1,-1.571581879E0,2.878963165E0,1.182377704E1
9.433218625E0,1.091335556E1,-1.788331146E0,3.553610229E0,1.161583417E1
9.443187625E0,1.025008484E1,-2.021396484E0,3.618126068E0,1.105627058E1
9.453156625E0,9.940977631E0,-1.994452515E0,3.756588135E0,1.081262371E1
9.463125625E0,1.009575577E1,-1.707499237E0,4.058510284E0,1.101414290E1
9.473093625E0,1.063867676E1,-1.268462219E0,4.477189636E0,1.161187610E1
9.483062625E0,1.106064926E1,-9.436376953E-1,4.767286377E0,1.208120166E1
9.493031625E0,1.111289062E1,-8.677455139E-1,4.866979065E0,1.216292751E1
9.502999625E0,1.074794952E1,-9.840536499E-1,4.784201202E0,1.180573427E1
9.512968625E0,1.004381378E1,-1.221609650E0,4.606371002E0,1.111706702E1
9.522937625E0,9.250912628E0,-1.360520782E0,4.670138397E0,1.045182252E1
9.532906625E0,8.570727081E0,-9.894424438E-1,4.736600189E0,9.842344253E0
9.542874625E0,7.753875732E0,-4.906796265E-1,4.430486755E0,8.943856453E0
9.552843625E0,6.782395935E0,-1.908531189E-1,3.949087830E0,7.850644191E0
9.562812625E0,6.054160309E0,1.450483704E-1,3.572321320E0,7.031029490E0
9.572780625E0,5.777236176E0,4.102967834E-1,3.236270142E0,6.634624760E0
9.582749625E0,5.792055359E0,5.481600952E-1,2.904410248E0,6.502613602E0
9.592718625E0,5.879473572E0,6.405180359E-1,2.732866974E0,6.515138888E0
9.602686625E0,6.143524475E0,7.400610352E-1,2.661315765E0,6.735962063E0
9.612655625E0,6.749314728E0,9.249266052E-1,2.716850281E0,7.334167572E0
9.622624625E0,7.237449646E0,1.043929138E0,2.880759430E0,7.859340959E0
9.632593625E0,7.435637512E0,1.029559021E0,2.828967133E0,8.021954377E0
9.642561625E0,7.645501099E0,1.074315948E0,2.656974792E0,8.165008074E0
9.652530625E0,7.594008179E0,9.011260986E-1,2.348765717E0,7.999855552E0
9.662499625E0,7.389533386E0,5.141807556E-1,1.849703522E0,7.634853544E0
9.672467625E0,7.379204865E0,2.761756897E-1,1.746867371E0,7.588180484E0
9.682436625E0,7.313641205E0,1.844165039E-1,1.756896515E0,7.523964546E0
9.692405625E0,7.299869843E0,2.650987244E-1,1.928290100E0,7.554910970E0
9.702374625E0,7.263495483E0,1.306782532E-1,2.163301392E0,7.579928519E0
9.712342625E0,7.343878326E0,-1.191522217E-1,2.102378082E0,7.639812807E0
9.722311625E0,7.542215881E0,-2.900967407E-1,2.026336212E0,7.815063337E0
9.732280625E0,7.663613434E0,-5.542973328E-1,1.980082397E0,7.934667145E0
9.742248625E0,7.854765930E0,-8.216413879E-1,2.039059753E0,8.156605119E0
9.752217625E0,8.250991974E0,-1.107247467E0,2.132914581E0,8.593846061E0
9.762186625E0,8.859027557E0,-1.476379852E0,2.160457306E0,9.237404533E0
9.772155625E0,9.645342407E0,-1.728904724E0,2.404599609E0,1.008978895E1
9.782123625E0,1.060649368E1,-1.825903015E0,2.704875183E0,1.109720595E1
9.792092625E0,1.164668060E1,-1.815125427E0,2.477647705E0,1.204485731E1
9.802061625E0,1.255903336E1,-1.738933868E0,1.787582703E0,1.280424390E1
9.812029625E0,1.300360886E1,-2.124382324E0,-4.454736328E-1,1.318352344E1
9.821998625E0,1.340642120E1,-2.591710510E0,-3.357518005E0,1.406136622E1
9.831967625E0,1.396416138E1,-2.805615692E0,-4.869374084E0,1.505257740E1
9.841936625E0,1.445005096E1,-2.894381104E0,-5.448819122E0,1.571213049E1
9.851904625E0,1.467368591E1,-2.627785492E0,-5.122797089E0,1.576278417E1
9.861873625E0,1.420965088E1,-2.105970612E0,-3.127895508E0,1.470146321E1
9.871842625E0,1.339983490E1,-1.614692230E0,-5.626799011E-1,1.350849418E1
9.881810625E0,1.260917908E1,-1.106798401E0,7.155120850E-1,1.267786880E1
9.891779625E0,1.160177399E1,-5.807922363E-1,1.307980042E0,1.168970877E1
9.901748625E0,1.049841843E1,-4.324507141E-1,1.713486786E0,1.064611854E1
9.911717625E0,1.101259918E1,-4.047583008E-1,1.852098541E0,1.117458899E1
9.921685625E0,1.231983078E1,-1.639091492E-1,1.802252197E0,1.245203637E1
9.931654625E0,1.292053162E1,2.252815247E-1,1.792821808E0,1.304626763E1
9.941623625E0,1.268626877E1,3.749702454E-1,1.834285583E0,1.282367426E1
9.951591625E0,1.208571762E1,3.537144470E-1,1.980232086E0,1.225197957E1
9.961560625E0,1.147349075E1,4.444258118E-1,2.398761749E0,1.172998561E1
9.971529625E0,1.100092346E1,4.242178345E-1,2.885399780E0,1.138094063E1
9.981497625E0,1.082473984E1,3.309617615E-1,3.438200226E0,1.136247108E1
9.991466625E0,1.112890732E1,5.134323120E-1,3.955674133E0,1.182216345E1
1.000143562E1,1.159114609E1,7.869136047E-1,4.288132782E0,1.238394054E1
1.001140462E1,1.191986252E1,1.083896027E0,4.398902435E0,1.275179578E1
1.002137262E1,1.170416107E1,1.403780823E0,4.483925629E0,1.261204091E1
1.003134162E1,1.071277267E1,1.381028137E0,4.489613800E0,1.169732316E1
1.004131062E1,9.630972290E0,1.204096069E0,4.435875549E0,1.067157282E1
1.005127862E1,8.821605377E0,1.065484314E0,4.253554688E0,9.851330150E0
1.006124762E1,8.022566986E0,9.047186279E-1,3.846401367E0,8.942868685E0
1.007121662E1,7.152276764E0,5.766009521E-1,3.531605988E0,7.997485381E0
1.008118562E1,6.565347290E0,3.956272888E-1,3.437002716E0,7.421138300E0
1.009115362E1,6.208339691E0,3.365002441E-1,3.027903442E0,6.915555899E0
1.010112262E1,5.685626678E0,1.167572021E-1,2.600841522E0,6.253347871E0
1.011109162E1,5.306165771E0,-6.930587769E-2,2.457439728E0,5.848008936E0
1.012105962E1,5.225184174E0,-1.652563477E-1,2.323618011E0,5.720931740E0
1.013102862E1,5.338947601E0,-1.953437805E-1,2.230661316E0,5.789505211E0
1.014099762E1,5.530249786E0,-7.244934082E-2,2.137405243E0,5.929368666E0
1.015096662E1,5.665119324E0,6.062393188E-2,1.978884888E0,6.001103033E0
1.016093462E1,5.810317383E0,9.580078125E-2,1.814077606E0,6.087679643E0
1.017090362E1,6.055357819E0,1.299298096E-1,1.703607330E0,6.291781783E0
1.018087262E1,6.611451416E0,2.197430420E-1,1.580413513E0,6.801270742E0
1.019084062E1,7.147935791E0,2.513273621E-1,1.419049072E0,7.291766026E0
1.020080962E1,7.655679932E0,2.942880249E-1,1.251996460E0,7.762959216E0
1.021077862E1,8.205785980E0,4.535568237E-1,9.418414307E-1,8.272103881E0
1.022074762E1,8.579558716E0,5.598358154E-1,3.683839417E-1,8.605692920E0
1.023071562E1,8.935668182E0,5.306465149E-1,-3.068618774E-2,8.951463189E0
1.024068462E1,9.425299988E0,4.999603271E-1,-3.101550293E-1,9.443645288E0
1.025065363E1,9.904154205E0,4.736151123E-1,-5.987548828E-1,9.933533571E0
1.026062162E1,1.026505371E1,3.457809448E-1,-7.704478455E-1,1.029973213E1
1.027059062E1,1.063478485E1,3.896397400E-1,-8.686436462E-1,1.067731285E1
1.028055963E1,1.089105194E1,4.605921936E-1,-1.289718018E0,1.097681785E1
1.029052862E1,1.128503265E1,6.176156616E-1,-2.023192749E0,1.148158177E1
1.030049662E1,1.198856964E1,1.135388947E0,-2.110012207E0,1.222567224E1
1.031046563E1,1.240066269E1,1.538201294E0,-9.144483948E-1,1.252911466E1
1.032043462E1,1.216804642E1,1.657652893E0,6.062393188E-1,1.229539316E1
1.033040262E1,1.193647797E1,2.013612671E0,1.704655151E0,1.222456508E1
1.034037163E1,1.193408295E1,2.609972534E0,1.421444092E0,1.229856885E1
1.035034062E1,1.206805435E1,3.135230255E0,-2.698887634E-1,1.247158549E1
1.036030963E1,1.218825439E1,3.485352173E0,-1.861828308E0,1.281279164E1
1.037027763E1,1.197225357E1,3.342100067E0,-2.657274170E0,1.271084554E1
1.038024696E1,1.158006912E1,2.553390198E0,-1.969454498E0,1.202067192E1
1.039021596E1,1.155926239E1,1.555565186E0,-7.970924377E-1,1.169066664E1
1.040018396E1,1.137813904E1,7.547305298E-1,-1.023870850E-1,1.140360247E1
1.041015296E1,1.088925568E1,4.614903259E-1,6.436614990E-2,1.089922041E1
1.042012196E1,1.025951523E1,1.628613281E-1,-1.062789917E-2,1.026081330E1
1.043009096E1,9.510772247E0,-3.266207886E-1,3.996688843E-2,9.516462958E0
1.044005896E1,9.175020447E0,-8.922944641E-1,2.279759216E-1,9.221125887E0
1.045002796E1,9.616602173E0,-1.304537201E0,5.890251160E-1,9.722541090E0
1.045999696E1,1.054781570E1,-1.435514832E0,8.860075378E-1,1.068185978E1
1.046996496E1,1.160057648E1,-1.402583313E0,1.271156616E0,1.175399735E1
1.047993396E1,1.267159927E1,-1.314865723E0,1.742676086E0,1.285827438E1
1.048990296E1,1.370175705E1,-1.375489655E0,2.221380615E0,1.394864330E1
1.049987196E1,1.463791031E1,-1.423240356E0,2.646047516E0,1.494307862E1
1.050983996E1,1.529594193E1,-1.397044830E0,2.882406006E0,1.562772658E1
1.051980896E1,1.526241165E1,-1.434766388E0,2.841990051E0,1.559091631E1
1.052977796E1,1.438149353E1,-1.557211761E0,2.595303040E0,1.469652552E1
1.053974596E1,1.295316376E1,-1.765279083E0,2.383044434E0,1.328832429E1
1.054971496E1,1.144714554E1,-1.802850952E0,2.205663300E0,1.179628599E1
1.055968396E1,1.010294083E1,-1.756597137E0,2.038610687E0,1.045518916E1
1.056965296E1,8.937763824E0,-1.671573944E0,2.033670959E0,9.317381564E0
1.057962096E1,7.822732544E0,-1.640438690E0,2.115850067E0,8.268192369E0
1.058958996E1,6.717880096E0,-1.621727600E0,2.135159912E0,7.233175046E0
1.059955896E1,5.813909912E0,-1.587149506E0,2.014211426E0,6.354340224E0
1.060952696E1,5.230123901E0,-1.513203278E0,1.867965546E0,5.756151098E0
1.061949596E1,4.872667236E0,-1.510658569E0,1.669478302E0,5.367693463E0
1.062946496E1,4.744683380E0,-1.584155731E0,1.429527283E0,5.202414633E0
1.063943396E1,4.959636383E0,-1.654958496E0,1.336271210E0,5.396526792E0
1.064940196E1,5.300477600E0,-1.642833710E0,1.419348450E0,5.727871804E0
1.065937096E1,5.751190338E0,-1.621577911E0,1.526525574E0,6.167332126E0
1.066933996E1,6.251899109E0,-1.565145264E0,1.591939545E0,6.638538520E0
1.067930796E1,6.613097992E0,-1.489552460E0,1.712738342E0,6.991802644E0
1.068927696E1,6.785539398E0,-1.415306854E0,1.717827759E0,7.141258336E0
1.069924596E1,7.037166138E0,-1.169068909E0,1.650168457E0,7.321986431E0
1.070921496E1,7.179220734E0,-8.939410400E-1,1.541195068E0,7.397000957E0
1.071918296E1,7.243736572E0,-6.727011108E-1,1.478475494E0,7.423620148E0
1.072915196E1,7.407196655E0,-4.828958130E-1,1.412612457E0,7.556138207E0
1.073912096E1,7.690108337E0,-3.580554199E-1,1.324146423E0,7.811487290E0
1.074908896E1,8.131989441E0,-3.276686096E-1,1.273252258E0,8.237584009E0
1.075905796E1,8.555009766E0,-3.519181824E-1,7.625143433E-1,8.596130910E0
1.076902696E1,8.965605927E0,-2.770738220E-1,-4.076023865E-1,8.979142456E0
1.077899596E1,9.558972015E0,-7.274871826E-2,-1.083147583E0,9.620418237E0
1.078896396E1,1.027553192E1,2.098635864E-1,-1.388512573E0,1.037104460E1
1.079893296E1,1.083641556E1,2.920426941E-1,-1.858385468E0,1.099849024E1
1.080890196E1,1.167467239E1,4.878355408E-1,-3.038531342E0,1.207346809E1
1.081886996E1,1.310554688E1,8.858578491E-1,-5.033133545E0,1.406671733E1
1.082883896E1,1.441352692E1,9.592053223E-1,-6.219117279E0,1.572727735E1
1.083880796E1,1.491124191E1,4.897814941E-1,-5.491630096E0,1.589789365E1
1.084877696E1,1.485016891E1,5.523513794E-2,-4.816084900E0,1.561170207E1
1.085874496E1,1.275871811E1,-9.415420532E-1,-6.570137329E0,1.438186684E1
1.086871396E1,1.066651886E1,-1.695673828E0,-6.321654053E0,1.251452134E1
1.087868296E1,1.140149048E1,-1.920057220E0,-2.875969391E0,1.191435289E1
1.088865096E1,1.275976593E1,-1.737586670E0,-5.989045715E-1,1.289145146E1
1.089861996E1,1.341031311E1,-1.258882141E0,3.231779480E-1,1.347314833E1
1.090858896E1,1.319805450E1,-8.655001831E-1,7.536827087E-1,1.324785911E1
1.091855796E1,1.283999908E1,-5.340893555E-1,1.036744080E0,1.289285330E1
1.092852596E1,1.313937653E1,-1.535806274E-1,1.432521057E0,1.321812843E1
1.093849496E1,1.365819763E1,6.077362061E-2,1.840422821E0,1.378177101E1
1.094846396E1,1.390069336E1,1.522334290E-1,2.017055511E0,1.404709806E1
1.095843196E1,1.362900833E1,1.076261902E-1,2.138003998E0,1.379610498E1
1.096840096E1,1.293205765E1,2.266287231E-1,2.367027740E0,1.314885151E1
1.097836996E1,1.207598785E1,3.342549133E-1,2.587968292E0,1.235470715E1
1.098833896E1,1.143921204E1,3.992198181E-1,2.923570404E0,1.181364518E1
1.099830696E1,1.110001740E1,4.610412598E-1,3.374582520E0,1.161080326E1
1.100827596E1,1.085782104E1,6.741979980E-1,3.634292450E0,1.146973855E1
1.101824496E1,1.070079758E1,9.551637268E-1,3.462150421E0,1.128742185E1
1.102821296E1,1.050066376E1,1.276545410E0,3.115321655E0,1.102718171E1
1.103818196E1,1.010907806E1,1.516346741E0,3.116968231E0,1.068682636E1
1.104815096E1,9.458381195E0,1.477876740E0,3.410208435E0,1.016241192E1
1.105811996E1,8.568631439E0,1.288370819E0,3.755240936E0,9.443684588E0
1.106808796E1,7.594756622E0,9.988728333E-1,3.971541138E0,8.628511697E0
1.107805696E1,6.765032043E0,7.069798279E-1,3.938609619E0,7.859906155E0
1.108802596E1,6.043532410E0,2.923420715E-1,3.543132019E0,7.011671154E0
1.109799496E1,5.571563873E0,6.391708374E-2,3.261866913E0,6.456483961E0
1.110796296E1,5.368436279E0,-1.384620667E-1,2.906655579E0,6.106384076E0
1.111793196E1,5.180427246E0,-4.245172119E-1,2.374512177E0,5.714485925E0
1.112790096E1,5.297034760E0,-6.147715759E-1,1.691781921E0,5.594519408E0
1.113786896E1,5.325924683E0,-7.312294006E-1,1.454974365E0,5.569301623E0
1.114783796E1,5.491031342E0,-9.270222473E-1,1.335672455E0,5.726675855E0
1.115780696E1,5.832621002E0,-1.038839722E0,1.071621552E0,6.020550512E0
1.116777496E1,6.342460785E0,-8.123606873E-1,9.514215088E-1,6.464668714E0
1.117774396E1,6.775510254E0,-4.050576782E-1,1.155297546E0,6.885225003E0
1.118771296E1,7.028633881E0,1.197509766E-3,1.182391205E0,7.127393957E0
1.119768196E1,7.143744507E0,3.574566650E-1,7.173083496E-1,7.188559808E0
1.120764996E1,7.144193573E0,6.749464417E-1,1.502874756E-1,7.177579037E0
1.121761896E1,7.269333344E0,1.049018555E0,-6.900650024E-2,7.344958072E0
1.122758796E1,7.434889069E0,1.250050507E0,-2.781216431E-1,7.544372299E0
1.123755696E1,7.799530792E0,1.202748871E0,-4.923262024E-1,7.907064595E0
1.124752496E1,8.208181000E0,1.098565521E0,-6.914122009E-1,8.310182451E0
1.125749396E1,8.674012299E0,8.427474976E-1,-1.012344818E0,8.773457399E0
1.126746296E1,9.388326874E0,7.131170654E-1,-1.456770630E0,9.527402485E0
1.127743096E1,1.027672943E1,8.369096375E-1,-1.747316437E0,1.045775790E1
1.128739996E1,1.091051147E1,1.109642487E0,-2.088007965E0,1.116379614E1
1.129736896E1,1.107771378E1,1.365161133E0,-2.408940582E0,1.141851138E1
1.130733796E1,1.096095657E1,1.421593781E0,-2.684367828E0,1.137406385E1
1.131730596E1,1.128188919E1,1.196911011E0,-2.849624176E0,1.169760564E1
1.132727496E1,1.211700256E1,3.847000122E-1,-2.919379120E0,1.246966398E1
1.133724396E1,1.302875656E1,-5.360353088E-1,-3.880081329E0,1.360481027E1
1.134721196E1,1.345162720E1,-6.629713440E-1,-5.175337830E0,1.442809505E1
1.135718096E1,1.349069595E1,-7.244934082E-2,-5.436993713E0,1.454527507E1
1.136714996E1,1.362676300E1,8.376580811E-1,-4.627626801E0,1.441545250E1
1.137711908E1,1.363035553E1,1.687291260E0,-3.105591888E0,1.408113080E1
1.138708708E1,1.387629410E1,2.738854523E0,-1.450184326E0,1.421815377E1
1.139705608E1,1.400831955E1,3.301085358E0,-4.493655396E-1,1.439903158E1
1.140702508E1,1.388782013E1,3.432362366E0,1.338217163E-1,1.430631216E1
1.141699308E1,1.343456268E1,3.813469849E0,8.003855896E-1,1.398823234E1
1.142696208E1,1.215861603E1,3.794758759E0,1.444645844E0,1.281870272E1
1.143693108E1,1.112022537E1,3.244952087E0,2.021845551E0,1.175912351E1
1.144690008E1,1.077369598E1,2.651436310E0,2.907254333E0,1.146973267E1
1.145686808E1,1.032807266E1,1.990111542E0,3.752696228E0,1.116746873E1
1.146683708E1,1.008887009E1,1.407073975E0,4.284390564E0,1.105084428E1
1.147680608E1,1.059421921E1,1.195264435E0,4.706961823E0,1.165425361E1
1.148677508E1,1.124731110E1,1.080602875E0,4.988526306E0,1.235131994E1
1.149674308E1,1.131182693E1,6.030958557E-1,4.766388245E0,1.228981733E1
1.150671208E1,1.115630035E1,-1.556762695E-2,3.746708679E0,1.176864928E1
1.151668108E1,1.131631760E1,-4.293072510E-1,2.757715302E0,1.165539971E1
1.152664908E1,1.143876297E1,-7.418572998E-1,2.883603516E0,1.181993315E1
1.153661808E1,1.102247864E1,-9.656419373E-1,3.672762451E0,1.165833109E1
1.154658708E1,1.026056305E1,-1.059047699E0,4.161645813E0,1.112295069E1
1.155655608E1,9.305848389E0,-1.278491364E0,4.281995544E0,1.032321850E1
1.156652408E1,8.623267822E0,-1.243763580E0,4.474794617E0,9.794461835E0
1.157649308E1,8.255332947E0,-7.759863281E-1,4.428391113E0,9.400176844E0
1.158646208E1,7.989186401E0,-1.270857239E-1,4.407734070E0,9.125314776E0
1.159643008E1,7.612270203E0,5.728587341E-1,4.241280212E0,8.732885125E0
1.160639908E1,7.089108124E0,1.222807159E0,3.813769226E0,8.142207750E0
1.161636808E1,6.450835419E0,1.550326080E0,3.174149323E0,7.354727220E0
1.162633708E1,5.952521667E0,1.725162506E0,2.635120239E0,6.734430826E0
1.163630508E1,5.543123016E0,1.826501770E0,2.272424469E0,6.263085059E0
1.164627408E1,5.077441406E0,1.802401886E0,1.728006592E0,5.658186156E0
1.165624308E1,4.503534851E0,1.475631409E0,1.179397430E0,4.883676126E0
1.166621208E1,4.061803436E0,9.708810425E-1,1.092278595E0,4.316703567E0
1.167618008E1,4.203858032E0,6.325845337E-1,1.647174683E0,4.559141365E0
1.168614908E1,4.544848938E0,8.756790161E-2,2.015408936E0,4.972443382E0
1.169611808E1,5.168601837E0,-4.375401306E-1,1.977537689E0,5.551264868E0
1.170608608E1,6.156697083E0,-8.461903381E-1,1.896256714E0,6.497441541E0
1.171605508E1,6.998845825E0,-1.484013977E0,1.649420013E0,7.342120045E0
1.172602408E1,7.892337799E0,-1.869312744E0,1.247356110E0,8.206047973E0
1.173599308E1,8.868457947E0,-1.887574768E0,6.502478027E-1,9.090396420E0
1.174596108E1,9.842033386E0,-1.421743469E0,8.786727905E-2,9.944581254E0
1.175593008E1,1.067834427E1,-8.235873413E-1,-2.800675964E-1,1.071371879E1
1.176589908E1,1.129461273E1,-2.544708252E-1,-5.510041809E-1,1.131090791E1
1.177586708E1,1.141346558E1,1.960922241E-2,-8.930429077E-1,1.144836698E1
1.178583608E1,1.126721970E1,2.424957275E-1,-1.218166809E0,1.133547415E1
1.179580508E1,1.082369202E1,4.117936707E-1,-1.206491089E0,1.089850924E1
1.180577408E1,1.020607635E1,3.891906738E-1,-8.367599487E-1,1.024771346E1
1.181574208E1,9.633367310E0,2.158511353E-1,-2.239343262E-1,9.638387003E0
1.182571108E1,9.665251007E0,2.908451843E-1,2.580633545E-1,9.673069040E0
1.183568008E1,1.037612274E1,5.424719238E-1,4.637356567E-1,1.040063699E1
1.184564908E1,1.141810593E1,8.339158630E-1,8.876541138E-2,1.144886186E1
1.185561708E1,1.216879486E1,7.458988953E-1,-5.852828979E-1,1.220567448E1
1.186558608E1,1.245350281E1,9.909393311E-2,-1.083446960E0,1.250093633E1
1.187555508E1,1.278506332E1,-7.129673767E-1,-9.804611206E-1,1.284240907E1
1.188552308E1,1.321077805E1,-1.109343109E0,-4.704716492E-1,1.326561880E1
1.189549208E1,1.306857376E1,-1.413061523E0,-3.079096985E-1,1.314835242E1
1.190546108E1,1.234542755E1,-1.729503479E0,-6.804849243E-1,1.248454338E1
1.191543008E1,1.160431870E1,-2.210603027E0,-7.602690125E-1,1.183744006E1
1.192539808E1,1.145298340E1,-2.580783234E0,-1.191522217E-1,1.174076097E1
1.193536708E1,1.200638260E1,-2.544558563E0,7.282356262E-1,1.229464634E1
1.194533608E1,1.258912079E1,-2.205214233E0,1.460812225E0,1.286401587E1
1.195530408E1,1.300016602E1,-1.135838013E0,2.001338196E0,1.320226492E1
1.196527308E1,1.297412018E1,3.960763550E-1,2.461930389E0,1.321157720E1
1.197524208E1,1.220486984E1,1.328637085E0,3.144061890E0,1.267317046E1
1.198521108E1,1.111768066E1,1.841470642E0,3.864962769E0,1.191351227E1
1.199517908E1,1.027822632E1,2.283052368E0,4.483925629E0,1.144376920E1
1.200514808E1,9.701625366E0,2.468666382E0,5.037773895E0,1.120691814E1
1.201511708E1,9.211394806E0,2.245330811E0,5.642067261E0,1.103287033E1
1.202508608E1,8.837023315E0,1.782942352E0,6.416257324E0,1.106527101E1
1.203505408E1,8.681496735E0,1.460063782E0,7.366780701E0,1.147909533E1
1.204502308E1,8.917705536E0,1.545835419E0,8.399483185E0,1.234772841E1
1.205499208E1,9.453142090E0,1.868414612E0,8.977281647E0,1.316983122E1
1.206496008E1,1.006102798E1,2.226769409E0,8.691376190E0,1.348046016E1
1.207492908E1,1.048479675E1,2.397564240E0,7.821984100E0,1.329897411E1
1.208489808E1,1.050186127E1,2.357896729E0,6.571185150E0,1.261067965E1
1.209486708E1,9.974507904E0,1.997446289E0,5.364843750E0,1.150052816E1
1.210483508E1,9.210796051E0,1.554966431E0,4.582271118E0,1.040451311E1
1.211480408E1,8.698561249E0,1.412163391E0,4.073179779E0,9.708242207E0
1.212477308E1,8.249944153E0,1.453776855E0,3.510499878E0,9.082877026E0
1.213474208E1,7.656877441E0,1.442849579E0,2.858306122E0,8.299367503E0
1.214471008E1,6.983427887E0,1.325643311E0,2.208357697E0,7.443281464E0
1.215467908E1,6.350094910E0,9.731263733E-1,1.640588379E0,6.630400480E0
1.216464808E1,6.005810852E0,5.468128967E-1,1.189276886E0,6.146799805E0
1.217461608E1,5.844147034E0,-3.517684937E-2,8.743318176E-1,5.909293366E0
1.218458508E1,5.906267853E0,-5.840853882E-1,6.893165588E-1,5.974973892E0
1.219455408E1,6.187083893E0,-9.060658264E-1,6.610253906E-1,6.287918332E0
1.220452308E1,6.543193359E0,-1.044228516E0,6.827302551E-1,6.661074473E0
1.221449108E1,7.032525787E0,-8.683442688E-1,6.307882690E-1,7.113953511E0
1.222446008E1,7.467970276E0,-5.754034424E-1,4.493655396E-1,7.503572386E0
1.223442908E1,7.818690948E0,-1.646575928E-1,1.507365417E-1,7.821877126E0
1.224439808E1,8.129295044E0,3.264710999E-1,-2.025288391E-1,8.138368339E0
1.225436608E1,8.406967621E0,7.930508423E-1,-4.367916870E-1,8.455579294E0
1.226433508E1,8.702602844E0,1.374890900E0,-5.266049194E-1,8.826263875E0
1.227430408E1,8.734336853E0,1.841021576E0,-4.887336731E-1,8.939623108E0
1.228427208E1,8.247549133E0,1.839824066E0,-6.018983459E-1,8.471676394E0
1.229424108E1,7.575895844E0,1.405876465E0,-7.243437195E-1,7.739209281E0
1.230421008E1,7.393275604E0,8.595126343E-1,-7.018904114E-1,7.476090976E0
1.231417908E1,7.903863831E0,4.017645264E-1,-6.346801758E-1,7.939477131E0
1.232414708E1,8.906478882E0,2.297721863E-1,-5.857319641E-1,8.928675336E0
1.233411608E1,1.007569748E1,2.658471680E-1,-3.276686096E-1,1.008452880E1
1.234408508E1,1.090123077E1,8.442443848E-2,2.562670898E-1,1.090456935E1
1.235405408E1,1.128548172E1,-5.156776428E-1,9.485774231E-1,1.133701108E1
1.236402208E1,1.148381927E1,-1.109343109E0,1.892364807E0,1.169144096E1
1.237399108E1,1.230441284E1,-5.929170227E-1,3.263363800E0,1.274361288E1
1.238395983E1,1.356733658E1,7.658074951E-1,3.407514038E0,1.400964792E1
1.239392783E1,1.421024963E1,1.983974304E0,1.182091827E0,1.439669024E1
1.240389683E1,1.436862030E1,2.921474762E0,-6.860234070E-1,1.467865431E1
1.241386583E1,1.384126694E1,3.493884430E0,-1.188678131E0,1.432483349E1
1.242383483E1,1.261771133E1,3.354374542E0,-2.583627319E-1,1.305853051E1
1.243380283E1,1.140957367E1,2.359243927E0,2.322570190E0,1.188018247E1
1.244377183E1,1.112920670E1,1.355581055E0,5.168751526E0,1.234555928E1
1.245374083E1,1.151734955E1,7.902067566E-1,6.037544861E0,1.302788223E1
1.246370883E1,1.162542480E1,3.629951477E-1,5.563630371E0,1.289326376E1
1.247367783E1,1.180265625E1,3.064128113E-1,5.982160034E0,1.323566478E1
1.248364683E1,1.204440353E1,5.043013000E-1,6.898853760E0,1.388942618E1
1.249361583E1,1.182091827E1,4.278103638E-1,7.182064819E0,1.383832308E1
1.250358383E1,1.155432266E1,3.803590393E-1,6.945556641E0,1.348657860E1
1.251355283E1,1.149474655E1,5.885760498E-1,6.956932983E0,1.344896043E1
1.252352183E1,1.118923187E1,6.370751953E-1,6.777905273E0,1.309751024E1
1.253349083E1,1.048135391E1,2.546205139E-1,6.419700165E0,1.229374482E1
1.254345883E1,9.653575287E0,-4.076023865E-1,5.808221741E0,1.127355735E1
1.255342783E1,8.734336853E0,-1.463057556E0,5.156926117E0,1.024807614E1
1.256339683E1,8.230035553E0,-2.627635803E0,4.786296844E0,9.876567855E0
1.257336583E1,8.359965363E0,-3.562591553E0,5.095254364E0,1.041838262E1
1.258333383E1,8.566984863E0,-4.207151184E0,5.286107483E0,1.091037502E1
1.259330283E1,8.848100281E0,-4.201912079E0,4.896916809E0,1.095101538E1
1.260327183E1,9.158404999E0,-3.268004150E0,4.240232391E0,1.060828940E1
1.261323983E1,9.117539978E0,-1.578317871E0,3.373085632E0,9.848772981E0
1.262320883E1,8.416847076E0,2.993774414E-3,2.365231476E0,8.742862438E0
1.263317783E1,7.546257477E0,1.255439301E0,1.463506622E0,7.788708582E0
1.264314683E1,6.746470642E0,1.955383759E0,1.050665131E0,7.102273508E0
1.265311483E1,6.059998169E0,2.384391632E0,1.193617859E0,6.620696705E0
1.266308383E1,5.622308350E0,2.585722961E0,1.290765839E0,6.321581358E0
1.267305283E1,5.260959778E0,2.329755249E0,1.361119537E0,5.912537839E0
1.268302183E1,5.138664093E0,1.745669861E0,1.346899109E0,5.591723270E0
1.269298983E1,5.413642273E0,1.343156891E0,1.266815643E0,5.719826481E0
1.270295883E1,5.862409058E0,9.071136475E-1,1.204994202E0,6.053321911E0
1.271292783E1,6.390510864E0,4.493655396E-1,1.013542328E0,6.485971519E0
1.272289583E1,6.899602203E0,-9.310638428E-2,6.587800598E-1,6.931606634E0
1.273286483E1,7.416627045E0,-6.905140686E-1,5.284011841E-1,7.467420854E0
1.274283383E1,7.657476196E0,-1.213975525E0,6.595285034E-1,7.781108926E0
1.275280283E1,7.585176544E0,-1.614841919E0,5.652246094E-1,7.775737681E0
1.276277083E1,7.392078094E0,-1.694476318E0,4.005670166E-1,7.594374397E0
1.277273983E1,7.069199524E0,-1.535207520E0,5.559439087E-1,7.255309619E0
1.278270883E1,6.863527222E0,-1.236279144E0,9.695338440E-1,7.041050200E0
1.279267783E1,6.835236053E0,-9.401948547E-1,1.084195404E0,6.984260730E0
1.280264583E1,7.236102448E0,-5.330415344E-1,9.768685913E-1,7.321173687E0
1.281261483E1,8.155191193E0,2.963836670E-2,8.075706482E-1,8.195132224E0
1.282258383E1,9.498797150E0,8.147557068E-1,8.132588196E-1,9.568299957E0
1.283255183E1,1.079704742E1,1.463656311E0,9.144483948E-1,1.093410896E1
1.284252083E1,1.184741318E1,1.481768646E0,9.783654785E-1,1.197973440E1
1.285248983E1,1.298519714E1,1.361119537E0,1.030606842E0,1.309695162E1
1.286245883E1,1.387210281E1,7.906558228E-1,8.689430237E-1,1.392176121E1
1.287242683E1,1.445334412E1,-1.393601990E-1,5.800437927E-1,1.446564994E1
1.288239583E1,1.461485825E1,-1.232836304E0,4.002676392E-1,1.467222482E1
1.289236483E1,1.434092789E1,-2.361489258E0,6.035449219E-1,1.454658416E1
1.290233383E1,1.371567810E1,-3.118764496E0,6.994953918E-1,1.408317477E1
1.291230183E1,1.249122437E1,-3.604654083E0,2.939886475E-1,1.300425494E1
1.292227083E1,1.123758133E1,-3.982618103E0,4.236190796E-2,1.192251130E1
1.293223983E1,1.110555588E1,-3.917653198E0,4.170327759E-1,1.178368763E1
1.294220783E1,1.198183365E1,-3.289559326E0,8.506809998E-1,1.245428426E1
1.295217683E1,1.252954468E1,-2.615361328E0,9.074130249E-1,1.283171863E1
1.296214583E1,1.183453995E1,-2.139800262E0,9.312135315E-1,1.206243091E1
1.297211483E1,1.073762100E1,-1.767374725E0,1.517993317E0,1.098746658E1
1.298208283E1,1.067879333E1,-1.075812836E0,2.548600159E0,1.103129018E1
1.299205183E1,1.132455048E1,-3.293151855E-1,3.688779144E0,1.191473808E1
1.300202083E1,1.165775757E1,2.231858826E-1,4.543651428E0,1.251390793E1
1.301198983E1,1.138771912E1,4.845423889E-1,5.188660126E0,1.252346286E1
1.302195783E1,1.076695999E1,8.378077698E-1,6.042933655E0,1.237523319E1
1.303192683E1,9.874066772E0,9.328601074E-1,6.933282166E0,1.210114971E1
1.304189583E1,9.144034882E0,6.978488159E-1,7.712711334E0,1.198274939E1
1.305186483E1,9.091494141E0,4.543052673E-1,8.333171082E0,1.234112634E1
1.306183283E1,9.828860779E0,6.060896301E-1,8.518485718E0,1.302069306E1
1.307180183E1,1.107980942E1,1.180445251E0,7.936945038E0,1.368030425E1
1.308177083E1,1.229393463E1,1.742077332E0,6.887178040E0,1.419890431E1
1.309173883E1,1.241353592E1,1.887275391E0,5.995033264E0,1.391395365E1
1.310170783E1,1.126347748E1,1.552870789E0,5.114863586E0,1.246752430E1
1.311167683E1,9.671537933E0,1.155596924E0,4.454586639E0,1.071062054E1
1.312164583E1,8.466094666E0,5.965095520E-1,3.894301758E0,9.337888879E0
1.313161383E1,7.713459778E0,1.095721436E-1,3.175496521E0,8.342256646E0
1.314158283E1,7.147187347E0,-1.661544800E-1,2.165995789E0,7.470035612E0
1.315155183E1,6.747219086E0,-1.938468933E-1,1.172362061E0,6.851056474E0
1.316151983E1,6.380332031E0,-1.258882141E-1,3.698808289E-1,6.392284138E0
1.317148883E1,6.092779999E0,-1.454974365E-1,-1.751358032E-2,6.094542177E0
1.318145783E1,5.894292755E0,-2.758763123E-1,-6.032455444E-2,5.901053624E0
1.319142683E1,5.839207306E0,-4.152365112E-1,-1.673519897E-1,5.856344424E0
1.320139483E1,5.789211273E0,-7.039860535E-1,-2.532733154E-1,5.837354786E0
1.321136383E1,5.889652405E0,-9.918374634E-1,-1.954934692E-1,5.975781514E0
1.322133283E1,6.343059540E0,-1.055604858E0,1.478924561E-1,6.431996434E0
1.323130183E1,6.801855469E0,-9.114546204E-1,2.896476746E-1,6.868761396E0
1.324126983E1,7.231162720E0,-4.948709106E-1,7.259902954E-2,7.248439978E0
1.325123883E1,7.435637512E0,-2.109114075E-1,-2.529739380E-1,7.442928499E0
1.326120783E1,7.385342102E0,-1.570234680E-1,-6.418652344E-1,7.414844928E0
1.327117683E1,7.456294556E0,-8.771759033E-2,-8.906478882E-1,7.509812017E0
1.328114483E1,7.593858490E0,-5.763015747E-2,-1.132395172E0,7.678041861E0
1.329111383E1,8.132737885E0,1.924996948E-1,-1.020727386E0,8.198802719E0
1.330108283E1,8.840915222E0,5.674699402E-1,-6.935078430E-1,8.886211635E0
1.331105183E1,9.411079559E0,9.421408081E-1,-6.312373352E-1,9.479161796E0
1.332101983E1,9.814191284E0,1.323098602E0,-9.392967224E-1,9.947422722E0
1.333098883E1,1.008857071E1,1.474134521E0,-1.578916626E0,1.031723360E1
1.334095783E1,1.047072601E1,1.529968414E0,-1.643432465E0,1.070877102E1
1.335092583E1,1.071771240E1,1.406774597E0,-3.109034729E-1,1.081411276E1
1.336089483E1,1.083940933E1,1.276994476E0,1.806742859E0,1.106290330E1
1.337086383E1,1.131347351E1,1.698368225E0,3.057392120E0,1.184173907E1
1.338083283E1,1.186807022E1,2.555485840E0,2.643502808E0,1.242456059E1
1.339080083E1,1.267489243E1,3.594475250E0,7.170089722E-1,1.319421283E1
1.340076983E1,1.340582245E1,4.206702118E0,-1.252445526E0,1.410606387E1
1.341073883E1,1.376507538E1,4.089346161E0,-2.334694977E0,1.454822507E1
1.342070783E1,1.349653381E1,2.719245300E0,-2.358345795E0,1.396826814E1
1.343067583E1,1.247939896E1,3.285667419E-1,-6.846762085E-1,1.250248519E1
1.344064483E1,1.185250259E1,-1.479673004E0,1.714085541E0,1.206686949E1
1.345061383E1,1.203766754E1,-2.081271973E0,3.593577118E0,1.273384975E1
1.346058183E1,1.241353592E1,-1.853745117E0,4.454736328E0,1.331829271E1
1.347055083E1,1.219948105E1,-1.525028687E0,4.415966949E0,1.306345339E1
1.348051983E1,1.175565399E1,-1.410666504E0,4.094585266E0,1.252800899E1
1.349048883E1,1.169637726E1,-1.559756470E0,4.114643555E0,1.249673449E1
1.350045683E1,1.171074738E1,-2.019899597E0,5.023852844E0,1.290196481E1
1.351042583E1,1.187450684E1,-2.105371857E0,6.407725067E0,1.365633347E1
1.352039483E1,1.211385910E1,-1.762584686E0,7.646099854E0,1.443312614E1
1.353036383E1,1.190459427E1,-1.512454834E0,8.055498505E0,1.445330206E1
1.354033183E1,1.158575729E1,-8.752299500E-1,7.560028839E0,1.386181213E1
1.355030083E1,1.131526978E1,4.011657715E-2,6.554420013E0,1.307659593E1
1.356026983E1,1.063253952E1,3.320095825E-1,5.529351654E0,1.198894727E1
1.357023883E1,9.491163025E0,-9.101074219E-2,5.451812897E0,1.094589980E1
1.358020683E1,8.849896545E0,-7.481442261E-1,5.836812286E0,1.062773571E1
1.359017583E1,8.835376740E0,-8.919950867E-1,5.065915375E0,1.022365081E1
1.360014483E1,9.068292389E0,-4.821473694E-1,3.374881897E0,9.687942029E0
1.361011283E1,9.265133057E0,2.124082947E-1,1.879042511E0,9.456141317E0
1.362008183E1,8.338709564E0,3.742218018E-3,5.792953491E-1,8.358808187E0
1.363005083E1,8.335117035E0,-1.585203552E-1,2.321971436E0,8.653950314E0
1.364001983E1,9.189390564E0,2.419568481E0,5.588029633E0,1.102385077E1
1.364998783E1,4.761448517E0,8.879534912E-1,-1.002914429E-1,4.844575498E0
1.365995683E1,4.600832520E0,8.556207275E-1,-1.167422333E0,4.823134002E0
1.366992583E1,6.478976898E0,1.613045654E0,1.384321289E0,6.818753798E0
1.367989483E1,7.247628479E0,1.273102570E0,3.226690063E0,8.034950995E0
1.368986283E1,6.139782257E0,2.960842896E-1,1.890718231E0,6.431128012E0
1.369983183E1,5.149142303E0,-1.209484863E-1,-2.176473999E-1,5.155159104E0
1.370980083E1,4.738845520E0,1.766326904E-2,-6.074368286E-1,4.777650924E0
1.371976883E1,4.027824097E0,-1.324745178E-1,-6.270460510E-1,4.078492761E0
1.372973783E1,3.334915009E0,-5.276527405E-1,-5.060975647E-1,3.414119253E0
1.373970683E1,2.988834686E0,-8.545729065E-1,-1.917512512E-1,3.114513795E0
1.374967583E1,3.665876770E0,-7.009922791E-1,8.669970703E-1,3.831674123E0
1.375964383E1,4.337380371E0,-6.756948853E-1,8.940907288E-1,4.479824806E0
1.376961283E1,4.706363068E0,-8.008346558E-1,2.049238586E-1,4.778408025E0
1.377958183E1,5.132526855E0,-8.038284302E-1,-2.821632385E-1,5.202748135E0
1.378955083E1,5.602699127E0,-7.354206848E-1,-4.897814941E-1,5.671945610E0
1.379951883E1,6.221362610E0,-6.352789307E-1,-3.553610229E-1,6.263801841E0
1.380948783E1,6.905739441E0,-4.784051514E-1,-1.637594604E-1,6.924227457E0
1.381945683E1,7.589667206E0,-4.279600525E-1,2.145039368E-1,7.604749177E0
1.382942583E1,8.418643341E0,-4.721182251E-1,6.024971008E-1,8.453369392E0
1.383939383E1,9.070986786E0,-2.808160400E-1,7.610174561E-1,9.107184334E0
1.384936283E1,9.013206940E0,-1.049916687E0,9.111552429E-1,9.119782249E0
1.385933183E1,9.422306213E0,-1.938917999E0,9.524693298E-1,9.666770671E0
1.386929983E1,1.098460739E1,-2.453547821E0,1.050665131E0,1.130422017E1
1.387926883E1,1.298639465E1,-3.416345673E0,7.640112305E-1,1.344996569E1
1.388923783E1,1.530462387E1,-3.899989929E0,4.357438660E-1,1.579972487E1
1.389920683E1,1.820095093E1,-3.446882172E0,4.387376404E-1,1.852965467E1
1.390917483E1,2.029075516E1,-2.728975067E0,-4.076023865E-1,2.047750447E1
1.391914383E1,2.011921188E1,-2.300416260E0,-1.303190002E0,2.029218830E1
1.392911283E1,1.877036682E1,-1.791474609E0,-8.692424011E-1,1.887568897E1
1.393908183E1,1.749217484E1,-1.060095520E0,5.057981873E-1,1.753156624E1
1.394904983E1,1.658640839E1,-4.230203247E-1,1.612147522E0,1.666994028E1
1.395901883E1,1.511511795E1,-1.591191101E-1,2.109263763E0,1.526240817E1
1.396898783E1,1.302396652E1,-1.974394226E-1,2.291884003E0,1.322555929E1
1.397895683E1,1.145882126E1,-4.285588074E-1,2.800526276E0,1.180386355E1
1.398892483E1,1.075034454E1,-8.523275757E-1,3.298390961E0,1.127722275E1
1.399889383E1,1.090242828E1,-9.186396790E-1,3.710184631E0,1.155302174E1
1.400886283E1,1.087159241E1,-1.123114471E0,4.227808228E0,1.171867185E1
1.401883083E1,1.020008881E1,-1.972298584E0,4.041296082E0,1.114736953E1
1.402879983E1,9.737251282E0,-2.649490356E0,3.827091522E0,1.079261281E1
1.403876883E1,9.578730927E0,-2.943778381E0,4.365521851E0,1.093049397E1
1.404873783E1,9.850865021E0,-2.686313782E0,4.776866455E0,1.127272268E1
1.405870583E1,1.029888336E1,-2.291734314E0,4.934788055E0,1.164779712E1
1.406867483E1,1.074854828E1,-1.797611847E0,4.935237122E0,1.196324638E1
1.407864383E1,1.118054993E1,-1.139280853E0,5.175936584E0,1.237307468E1
1.408861283E1,1.135568573E1,-6.267466736E-1,5.669160919E0,1.270762745E1
1.409858083E1,1.117815491E1,-3.263214111E-1,5.960006104E0,1.267198901E1
1.410854983E1,1.048359924E1,-1.672023010E-1,6.007607117E0,1.208408677E1
1.411851883E1,9.308692474E0,-1.136137390E-1,5.872288513E0,1.100674503E1
1.412848783E1,8.106991425E0,-2.589614868E-2,5.773044891E0,9.952488527E0
1.413845583E1,7.184759216E0,1.781295776E-2,5.462590485E0,9.025573505E0
1.414842483E1,6.596482544E0,7.394622803E-2,4.787344666E0,8.150933624E0
1.415839383E1,6.184239807E0,2.412982178E-1,3.912414093E0,7.321887110E0
1.416836183E1,5.738766174E0,3.044668579E-1,3.175047455E0,6.565596973E0
1.417833083E1,5.403613129E0,3.203338623E-1,2.611319733E0,6.010044873E0
1.418829983E1,5.306016083E0,3.592529297E-1,2.210153961E0,5.759136209E0
1.419826883E1,5.293292542E0,3.546125793E-1,1.842069397E0,5.615862861E0
1.420823683E1,5.297334137E0,3.104544067E-1,1.544637909E0,5.526666008E0
1.421820583E1,5.470673676E0,2.911445618E-1,1.229243774E0,5.614630520E0
1.422817483E1,5.791456604E0,1.586700439E-1,9.690847778E-1,5.874118750E0
1.423814383E1,6.291416931E0,6.286926270E-2,8.536747742E-1,6.349381085E0
1.424811183E1,6.855893097E0,-8.652008057E-2,7.298822021E-1,6.895178309E0
1.425808083E1,7.263196106E0,-3.195854187E-1,4.608915710E-1,7.284818018E0
1.426804983E1,7.504644012E0,-4.899311829E-1,2.555186462E-1,7.524958744E0
1.427801883E1,7.545958099E0,-6.090834045E-1,2.911445618E-1,7.576096052E0
1.428798683E1,7.559879150E0,-7.186555481E-1,3.632945251E-1,7.602645689E0
1.429795583E1,7.671397247E0,-7.288343811E-1,5.327421570E-1,7.724334890E0
1.430792483E1,8.007149048E0,-5.282514954E-1,7.403604126E-1,8.058636303E0
1.431789283E1,8.475225677E0,-2.053729248E-1,8.087681580E-1,8.516204216E0
1.432786183E1,9.079069977E0,6.481521606E-2,7.899073792E-1,9.113597880E0
1.433783083E1,9.908345490E0,4.159849548E-1,6.243516541E-1,9.936708148E0
1.434779983E1,1.078028229E1,6.730004883E-1,3.751199341E-1,1.080778103E1
1.435776783E1,1.156060959E1,6.328839111E-1,3.835025024E-1,1.158426995E1
1.436773683E1,1.270991959E1,8.696914673E-1,3.917353821E-1,1.274566106E1
1.437770583E1,1.362257172E1,1.007105713E0,1.095721436E-1,1.366018771E1
1.438767450E1,1.392673920E1,8.967851257E-1,6.990463257E-2,1.395575777E1
1.439764250E1,1.406954224E1,1.118773499E0,5.089416504E-3,1.411395404E1
1.440761150E1,1.384560791E1,1.449884949E0,-5.219645691E-1,1.393109729E1
1.441758050E1,1.312126419E1,1.673819275E0,-1.466949463E0,1.330868835E1
1.442754950E1,1.235500763E1,1.884580994E0,-2.292931824E0,1.270650996E1
1.443751750E1,1.167018173E1,1.555265808E0,-2.394869843E0,1.201446607E1
1.444748650E1,1.149579437E1,4.296066284E-1,-2.084565125E0,1.169116170E1
1.445745550E1,1.142544067E1,-1.109792175E0,-4.398303680E0,1.229298208E1
1.446742350E1,1.163590302E1,-2.277962952E0,-6.359674988E0,1.345469510E1
1.447739250E1,1.180939224E1,-2.411934357E0,-5.644462280E0,1.330936238E1
1.448736150E1,1.143906235E1,-2.353406067E0,-3.474574585E0,1.218455317E1
1.449733050E1,1.059466827E1,-2.423759766E0,-9.791139221E-1,1.091239072E1
1.450729850E1,1.002824615E1,-2.428100739E0,7.110214233E-1,1.034248256E1
1.451726750E1,1.009680359E1,-2.338586884E0,1.806742859E0,1.052039691E1
1.452723650E1,1.051593201E1,-2.487676849E0,2.866539001E0,1.117991091E1
1.453720550E1,1.103220840E1,-2.846780090E0,3.895648956E0,1.204117353E1
1.454717350E1,1.156495056E1,-3.019371185E0,4.712051239E0,1.284788351E1
1.455714250E1,1.202928497E1,-2.833607483E0,5.594166870E0,1.356568212E1
1.456711150E1,1.212089447E1,-2.747835846E0,6.584058380E0,1.406472571E1
1.457708050E1,1.202898560E1,-2.649340668E0,7.046446838E0,1.419041625E1
1.458704850E1,1.163545395E1,-2.708018646E0,6.843019867E0,1.376750066E1
1.459701750E1,1.109567642E1,-2.793191528E0,6.629414062E0,1.322365626E1
1.460698650E1,1.042282562E1,-2.544408875E0,7.208260345E0,1.292549139E1
1.461695550E1,9.127269745E0,-2.110012207E0,7.926616516E0,1.227153022E1
1.462692350E1,7.295229492E0,-1.681154022E0,7.786208496E0,1.080146726E1
1.463689250E1,5.835614777E0,-1.128353577E0,7.315587158E0,9.425783632E0
1.464686150E1,4.961282959E0,-6.634204102E-1,6.680308228E0,8.347512998E0
1.465682950E1,4.494852905E0,-3.579057312E-1,5.834716644E0,7.373989251E0
1.466679850E1,4.431534576E0,-8.562194824E-2,4.831203461E0,6.556398150E0
1.467676750E1,4.769082642E0,2.772235107E-1,4.189487915E0,6.353960270E0
1.468673650E1,5.178780670E0,5.224136353E-1,3.629352722E0,6.345461876E0
1.469670450E1,5.569617920E0,5.569917297E-1,3.240162048E0,6.467575563E0
1.470667350E1,6.036946106E0,5.938151550E-1,2.840642853E0,6.698252499E0
1.471664250E1,6.517746277E0,8.520281982E-1,2.180216217E0,6.925338355E0
1.472661150E1,6.886728973E0,1.200204163E0,1.401685181E0,7.129673718E0
1.473657950E1,7.073839874E0,1.295555878E0,7.496411133E-1,7.230465918E0
1.474654850E1,7.657326508E0,1.419049072E0,6.765930176E-2,7.787998927E0
1.475651750E1,8.366252289E0,1.403780823E0,-6.288423157E-1,8.506481095E0
1.476648650E1,8.731792145E0,1.011596375E0,-1.405726776E0,8.901886825E0
1.477645450E1,8.937763824E0,5.069956970E-1,-2.055824890E0,9.185155567E0
1.478642350E1,9.122030640E0,1.407073975E-2,-2.526745605E0,9.465520817E0
1.479639250E1,9.149273987E0,-8.258326721E-1,-2.720742188E0,9.580900382E0
1.480636150E1,8.947194214E0,-1.833836517E0,-2.841990051E0,9.565152802E0
1.481632950E1,8.945248260E0,-2.061213684E0,-3.418740692E0,9.795603923E0
1.482629850E1,9.225914612E0,-1.589843903E0,-4.084256744E0,1.021402258E1
1.483626750E1,9.708511047E0,-4.701722717E-1,-4.800517273E0,1.084072022E1
1.484623550E1,9.755662994E0,4.637356567E-1,-5.507347412E0,1.121244339E1
1.485620450E1,1.026146118E1,5.444178772E-1,-4.938829651E0,1.140114094E1
1.486617350E1,1.116647919E1,-3.281176758E-1,-2.932252350E0,1.154971958E1
1.487614250E1,1.168934189E1,-1.366658020E0,-6.727011108E-1,1.178817181E1
1.488611050E1,1.212448700E1,-2.119891663E0,9.638456726E-1,1.234609753E1
1.489607950E1,1.274958710E1,-2.411485291E0,1.318458252E0,1.304245240E1
1.490604850E1,1.290616150E1,-2.621947632E0,8.640032959E-1,1.319811031E1
1.491601750E1,1.289253983E1,-2.854114838E0,4.180805969E-1,1.321129615E1
1.492598550E1,1.302261932E1,-2.745590515E0,2.225871277E-1,1.331076355E1
1.493595450E1,1.312126419E1,-2.493664398E0,2.839595032E-1,1.335913804E1
1.494592350E1,1.268896317E1,-2.226020966E0,3.391946411E-1,1.288720329E1
1.495589250E1,1.230965195E1,-1.869013367E0,-6.631210327E-2,1.245090918E1
1.496586050E1,1.258837234E1,-1.510059814E0,-2.404000854E-1,1.268089867E1
1.497582950E1,1.279928375E1,-1.192270660E0,1.073268127E-1,1.285514267E1
1.498579850E1,1.169308411E1,-1.587598572E0,6.005511475E-1,1.181563992E1
1.499576650E1,9.970166931E0,-2.242935791E0,1.224753113E0,1.029247345E1
1.500573550E1,9.485325165E0,-2.830913086E0,2.396067352E0,1.018462572E1
1.501570450E1,1.024649231E1,-3.335513763E0,3.778742065E0,1.141906950E1
1.502567350E1,1.094553864E1,-3.516188049E0,4.755610657E0,1.244123093E1
1.503564150E1,1.123473724E1,-3.582051086E0,5.122647400E0,1.285659081E1
1.504561050E1,1.145013931E1,-3.559298401E0,5.242248688E0,1.308646120E1
1.505557950E1,1.156435181E1,-3.390299835E0,5.428162079E0,1.321715965E1
1.506554850E1,1.125734024E1,-3.082390137E0,5.527854767E0,1.291456606E1
1.507551650E1,1.051877609E1,-2.818788300E0,5.590873718E0,1.224124532E1
1.508548550E1,9.844578094E0,-2.630180511E0,5.738616486E0,1.169466915E1
1.509545450E1,9.676477661E0,-2.223925323E0,5.876928864E0,1.153769286E1
1.510542350E1,9.821376343E0,-1.785936127E0,5.836063843E0,1.156324532E1
1.511539150E1,1.000175125E1,-1.371448059E0,5.681435394E0,1.158423955E1
1.512536050E1,1.007464966E1,-6.204597473E-1,5.184319153E0,1.134727726E1
1.513532950E1,9.628726959E0,1.034349060E-1,4.306394806E0,1.054837039E1
1.514529850E1,8.881780243E0,8.277786255E-1,3.426674194E0,9.555801053E0
1.515526650E1,7.902516632E0,1.280587006E0,2.785108337E0,8.476231512E0
1.516523550E1,7.032525787E0,1.242416382E0,2.339934082E0,7.515005584E0
1.517520450E1,6.978637848E0,1.420545959E0,2.556383972E0,7.566666112E0
1.518517250E1,6.988068237E0,1.380728760E0,2.868934021E0,7.679211679E0
1.519514150E1,6.806196442E0,1.201401672E0,2.842439117E0,7.473094146E0
1.520511050E1,6.468947754E0,1.077010345E0,2.515069885E0,7.023732117E0
1.521507950E1,6.090983734E0,8.879534912E-1,2.141297150E0,6.517184801E0
1.522504750E1,5.772446136E0,6.171665955E-1,1.816772003E0,6.082983603E0
1.523501650E1,5.638923798E0,3.288661194E-1,1.756896515E0,5.915428969E0
1.524498550E1,5.651647339E0,1.263372803E-1,1.810934143E0,5.936039186E0
1.525495450E1,5.823789368E0,1.914518738E-1,1.508862305E0,6.019123015E0
1.526492250E1,6.077661438E0,3.650907898E-1,1.138382721E0,6.194124237E0
1.527489150E1,6.125711517E0,2.966830444E-1,8.538244629E-1,6.192041556E0
1.528486050E1,6.154152374E0,-1.233435059E-1,7.908055115E-1,6.205979248E0
1.529482950E1,6.459966431E0,-4.972659302E-1,9.595046997E-1,6.549739610E0
1.530479750E1,6.920558624E0,-9.135502625E-1,1.102906494E0,7.067185330E0
1.531476650E1,7.460785217E0,-1.363813934E0,1.142723694E0,7.670014468E0
1.532473550E1,8.234077148E0,-1.650767212E0,1.247505798E0,8.490072414E0
1.533470450E1,9.104966125E0,-1.773661652E0,1.232087860E0,9.357581113E0
1.534467250E1,9.875863037E0,-1.765428772E0,9.262738037E-1,1.007508772E1
1.535464150E1,1.044033920E1,-1.495540009E0,2.992277527E-1,1.055115443E1
1.536461050E1,1.081156723E1,-1.148711243E0,-4.995112610E-1,1.088388878E1
1.537457850E1,1.119566849E1,-6.367758179E-1,-1.121318207E0,1.126968637E1
1.538454762E1,1.160776154E1,-1.562750244E-1,-1.468446350E0,1.170131977E1
1.539451662E1,1.203916443E1,3.073109436E-1,-1.342707825E0,1.211770541E1
1.540448562E1,1.229558121E1,5.742059326E-1,-6.265969849E-1,1.232492002E1
1.541445362E1,1.219753510E1,4.638853455E-1,4.752616882E-1,1.221560173E1
1.542442262E1,1.223061630E1,1.547781372E-1,1.335522766E0,1.230429000E1
1.543439162E1,1.283461029E1,1.197509766E-1,1.434766388E0,1.291511193E1
1.544436062E1,1.366927460E1,4.611909485E-1,5.592370605E-1,1.368848097E1
1.545432862E1,1.413899780E1,6.968009949E-1,-1.149908752E0,1.420278426E1
1.546429762E1,1.378423553E1,2.938389587E-1,-2.858006744E0,1.408047205E1
1.547426663E1,1.328996338E1,-2.775228882E-1,-3.814667358E0,1.382938294E1
1.548423562E1,1.298399963E1,-8.845106506E-1,-4.017645264E0,1.362013506E1
1.549420362E1,1.323263260E1,-1.395997009E0,-3.408262482E0,1.373563345E1
1.550417263E1,1.363304993E1,-1.797761536E0,-2.231709137E0,1.393099144E1
1.551414162E1,1.306617874E1,-2.009421387E0,-1.042432251E0,1.326082449E1
1.552411063E1,1.115944382E1,-1.997595978E0,-1.878593445E-1,1.133838027E1
1.553407863E1,9.737850037E0,-1.647623749E0,5.948629761E-1,9.894152279E0
1.554404762E1,9.480086060E0,-1.268761597E0,1.419498138E0,9.669372402E0
1.555401663E1,9.890682220E0,-9.889933777E-1,2.112407227E0,1.016198637E1
1.556398463E1,1.050186127E1,-7.982899475E-1,2.597698059E0,1.084778282E1
1.557395362E1,1.119492004E1,-6.789880371E-1,3.028202820E0,1.161711117E1
1.558392263E1,1.184337158E1,-6.279441833E-1,3.444187775E0,1.234998760E1
1.559389162E1,1.257040970E1,-3.504212952E-1,3.966751099E0,1.318609530E1
1.560385962E1,1.312725174E1,7.469467163E-2,4.278702393E0,1.380715799E1
1.561382863E1,1.318338501E1,2.450404358E-1,4.313729553E0,1.387335388E1
1.562379762E1,1.259705429E1,-6.885681152E-3,4.026177521E0,1.322482248E1
1.563376663E1,1.157348282E1,-4.960684204E-1,3.559597778E0,1.211867669E1
1.564373463E1,1.052581146E1,-9.005273438E-1,3.413800964E0,1.110214815E1
1.565370362E1,9.580377502E0,-1.066232758E0,3.504512329E0,1.025680711E1
1.566367263E1,8.585695953E0,-1.130598907E0,3.596271515E0,9.376865025E0
1.567364162E1,7.524253235E0,-1.172960815E0,3.620670776E0,8.432050800E0
1.568360962E1,6.612648926E0,-1.209634552E0,3.581003265E0,7.616687335E0
1.569357863E1,5.923332367E0,-1.137185211E0,3.558250580E0,7.002871106E0
1.570354762E1,5.399421844E0,-9.366023254E-1,3.619772644E0,6.567627743E0
1.571351663E1,4.886887665E0,-7.152127075E-1,3.715573425E0,6.180508567E0
1.572348463E1,4.470902710E0,-4.372407532E-1,3.706442413E0,5.823904694E0
1.573345362E1,4.262835388E0,-2.468367004E-1,3.578458557E0,5.571181163E0
1.574342263E1,4.419858856E0,-1.362167358E-1,3.288810883E0,5.510896872E0
1.575339063E1,4.963228912E0,2.859054565E-2,2.818488922E0,5.707743728E0
1.576335962E1,5.459447021E0,5.493576050E-2,2.473456421E0,5.993877408E0
1.577332862E1,5.864804077E0,3.008743286E-2,2.185754700E0,6.258942061E0
1.578329762E1,6.408623199E0,1.709445190E-1,1.866318970E0,6.677036756E0
1.579326562E1,6.760691071E0,1.351689148E-1,1.575174408E0,6.943082082E0
1.580323462E1,7.110513611E0,1.308279419E-1,1.287472687E0,7.227316631E0
1.581320362E1,7.432494049E0,1.004411316E-1,1.020428009E0,7.502888079E0
1.582317262E1,7.698191528E0,-5.224136353E-2,8.488847351E-1,7.745029842E0
1.583314062E1,8.003406830E0,-2.321672058E-1,7.711962891E-1,8.043827833E0
1.584310962E1,8.264763336E0,-5.387297058E-1,4.120930481E-1,8.292548666E0
1.585307862E1,8.512348480E0,-9.589059448E-1,-3.038681030E-1,8.571575881E0
1.586304762E1,9.053024139E0,-1.134939880E0,-6.378236389E-1,9.146155126E0
1.587301562E1,9.748927002E0,-1.129102020E0,-8.177494812E-1,9.848104552E0
1.588298462E1,1.040441391E1,-1.055305481E0,-1.138532410E0,1.051958908E1
1.589295362E1,1.090736801E1,-1.077309723E0,-1.595981140E0,1.107602948E1
1.590292262E1,1.140164017E1,-1.181642761E0,-2.008074188E0,1.163726944E1
1.591289062E1,1.209754303E1,-1.205293579E0,-2.263293457E0,1.236631624E1
1.592285962E1,1.281634827E1,-1.338217163E0,-2.598745880E0,1.314545884E1
1.593282862E1,1.352976471E1,-1.555714874E0,-2.977009277E0,1.394049375E1
1.594279762E1,1.385369110E1,-1.877545624E0,-3.756737823E0,1.447629144E1
1.595276562E1,1.380773666E1,-2.444865875E0,-4.575684814E0,1.475018144E1
1.596273462E1,1.317500244E1,-3.072810059E0,-5.254523163E0,1.451319622E1
1.597270362E1,1.224708206E1,-3.323688354E0,-5.150639191E0,1.369551048E1
1.598267162E1,1.227402603E1,-3.151396637E0,-3.712879028E0,1.320486601E1
1.599264062E1,1.306064026E1,-2.861898651E0,-1.535057831E0,1.345835021E1
1.600260962E1,1.378707962E1,-2.561623077E0,3.320095825E-1,1.402696359E1
1.601257862E1,1.415232010E1,-2.213746490E0,1.232985992E0,1.437738127E1
1.602254662E1,1.419602921E1,-1.667532349E0,1.543590088E0,1.437673745E1
1.603251563E1,1.409828247E1,-7.812254333E-1,1.619182892E0,1.421244648E1
1.604248462E1,1.380429382E1,-3.802093506E-2,1.657652893E0,1.390351706E1
1.605245363E1,1.327364731E1,3.622467041E-1,1.908680878E0,1.341506609E1
1.606242163E1,1.267968246E1,4.577481079E-1,2.219135284E0,1.288054510E1
1.607239062E1,1.212807953E1,2.411485291E-1,2.582280121E0,1.240228351E1
1.608235963E1,1.181552948E1,-8.786727905E-2,3.100951538E0,1.221598780E1
1.609232862E1,1.174442734E1,-1.399589539E-1,3.517984314E0,1.226080648E1
1.610229662E1,1.197704361E1,1.523831177E-1,3.565884705E0,1.249753288E1
1.611226563E1,1.225217148E1,5.641767883E-1,3.482657776E0,1.275001594E1
1.612223462E1,1.242625946E1,8.430468750E-1,3.517535248E0,1.294201323E1
1.613220363E1,1.226444595E1,9.592053223E-1,3.699407043E0,1.284610143E1
1.614217163E1,1.167272644E1,9.710307312E-1,3.839964752E0,1.232642578E1
1.615214062E1,1.060364960E1,9.967771912E-1,3.801195374E0,1.130840554E1
1.616210963E1,9.358389130E0,9.707313538E-1,3.619323578E0,1.008073755E1
1.617207763E1,8.349038086E0,1.039737854E0,3.431913300E0,9.086557140E0
1.618204662E1,7.260352020E0,9.361532593E-1,3.265609131E0,8.015815453E0
1.619201563E1,6.048322449E0,6.291416931E-1,3.165617065E0,6.855592981E0
1.620198462E1,5.090614014E0,5.084925842E-1,3.165766754E0,6.016227629E0
1.621195262E1,4.269122314E0,3.884422302E-1,3.143163757E0,5.315615779E0
1.622192163E1,3.531605988E0,2.252815247E-1,2.951711884E0,4.608209594E0
1.623189062E1,2.929258575E0,9.565109253E-2,2.727328491E0,4.003501671E0
1.624185963E1,2.639760590E0,-1.002914429E-1,2.382595367E0,3.557408471E0
1.625182763E1,2.979404297E0,-2.938389587E-1,1.895957336E0,3.543705055E0
1.626179662E1,3.822600861E0,-4.234693909E-1,1.799108734E0,4.245985857E0
1.627176563E1,4.861590271E0,-4.052073669E-1,2.077829132E0,5.302511374E0
1.628173462E1,5.610333252E0,-2.758763123E-1,2.265987854E0,6.056950379E0
1.629170262E1,6.255042572E0,-9.235794067E-2,2.359094238E0,6.685761975E0
1.630167163E1,6.959926758E0,7.783813477E-2,2.367925873E0,7.352122972E0
1.631164062E1,7.621999969E0,1.269360352E-1,2.167342987E0,7.925173305E0
1.632160962E1,8.230783997E0,2.484832764E-1,2.014660492E0,8.477405619E0
1.633157762E1,8.607700195E0,2.915936279E-1,1.750759277E0,8.788781915E0
1.634154662E1,8.892408142E0,2.984793091E-1,1.300196228E0,8.991914295E0
1.635151562E1,9.232201538E0,3.363505554E-1,9.578581238E-1,9.287850619E0
1.636148462E1,9.348210297E0,2.058219910E-1,2.222877502E-1,9.353117677E0
1.637145262E1,9.476044464E0,-4.580474854E-2,-5.556445312E-1,9.492431596E0
1.638142221E1,9.727521515E0,-2.851570129E-1,-9.894424438E-1,9.781870255E0
1.639139121E1,1.004426285E1,-5.366340637E-1,-1.466201019E0,1.016488749E1
1.640136021E1,1.040576111E1,-8.205935669E-1,-2.089055786E0,1.064506421E1
1.641132821E1,1.077100159E1,-1.125808868E0,-2.595003662E0,1.113624554E1
1.642129721E1,1.126527374E1,-1.356928253E0,-3.165317688E0,1.177993560E1
1.643126621E1,1.192061096E1,-1.470541992E0,-3.376528473E0,1.247655417E1
1.644123421E1,1.288310944E1,-1.298250275E0,-3.496578827E0,1.341215963E1
1.645120321E1,1.433284470E1,-4.070036316E-1,-3.202290802E0,1.469186018E1
1.646117221E1,1.474493774E1,1.044078827E0,-2.944377136E0,1.507224756E1
1.647114121E1,1.298384995E1,2.081421661E0,-5.513334961E0,1.425866536E1
1.648110921E1,1.280197815E1,2.288740540E0,-6.866670685E0,1.470646606E1
1.649107821E1,1.358425140E1,2.065854034E0,-5.824088745E0,1.492379472E1
1.650104721E1,1.371328308E1,1.183139648E0,-4.106560364E0,1.436376658E1
1.651101621E1,1.368080063E1,2.279759216E-1,-2.377056885E0,1.388764481E1
1.652098421E1,1.367286713E1,-3.966751099E-1,-8.351133728E-1,1.370408921E1
1.653095321E1,1.347542770E1,-6.506968689E-1,2.062710571E-1,1.349270566E1
1.654092221E1,1.261277161E1,-8.909472656E-1,9.653425598E-1,1.268099684E1
1.655089121E1,1.154758667E1,-1.055455170E0,1.575174408E0,1.170221850E1
1.656085921E1,1.079644867E1,-1.227148132E0,2.032174072E0,1.105436239E1
1.657082821E1,1.048509613E1,-1.199904785E0,2.340682526E0,1.080998645E1
1.658079721E1,1.045306274E1,-1.013692017E0,2.637664948E0,1.082826711E1
1.659076621E1,1.047147446E1,-8.605604553E-1,2.823278961E0,1.087948738E1
1.660073421E1,1.046024780E1,-7.728428650E-1,3.075803833E0,1.093044553E1
1.661070321E1,1.065648972E1,-7.183561707E-1,3.413202209E0,1.121279439E1
1.662067221E1,1.106513992E1,-6.735992432E-1,3.654201050E0,1.167237091E1
1.663064121E1,1.148187332E1,-7.545808411E-1,3.717519379E0,1.209226023E1
1.664060921E1,1.174652298E1,-9.147477722E-1,3.787873077E0,1.237600695E1
