"Time (s)","Acceleration x (m/s^2)","Acceleration y (m/s^2)","Acceleration z (m/s^2)","Absolute acceleration (m/s^2)"
9.010834619E-4,-1.895358582E0,5.662724304E0,6.056854706E0,8.505546404E0
1.087008324E-2,-1.716480560E0,5.818250885E0,5.673651581E0,8.305941917E0
2.083908347E-2,-1.966011658E0,5.755531311E0,5.301824799E0,8.068499780E0
3.080808325E-2,-2.109563141E0,5.683531036E0,4.938230896E0,7.819137169E0
4.077608325E-2,-1.690135345E0,5.691464539E0,4.737198944E0,7.595418350E0
5.074508348E-2,-1.626966705E0,5.829178162E0,5.149291992E0,7.946165536E0
6.071408326E-2,-1.695673828E0,6.286177826E0,5.246589661E0,8.361701050E0
7.068308350E-2,-4.611909485E-1,5.051545258E0,3.323388977E0,6.064298877E0
8.065108350E-2,-4.857398987E-1,3.795806580E0,1.609752502E0,4.151553198E0
9.062008327E-2,-6.225553894E-1,2.789299622E0,2.477348328E-1,2.868647789E0
1.005890835E-1,-1.525627441E0,1.341959381E0,2.649490356E-2,2.032017729E0
1.105570835E-1,-2.005828857E0,-1.571731567E-2,4.285588074E-1,2.051160425E0
1.205260833E-1,-2.108964386E0,7.424560547E-2,3.318299561E0,3.932474433E0
1.304950835E-1,1.691482544E-2,2.700534210E0,2.971470795E0,4.015321882E0
1.404630835E-1,2.659818878E0,4.061504059E0,2.679877167E0,5.545466014E0
1.504320833E-1,3.284918976E0,2.467169495E0,5.383704529E0,6.772140906E0
1.604010835E-1,4.567451935E0,-8.002359009E-1,7.817343750E0,9.089161566E0
1.703700833E-1,7.078330536E0,-3.173700256E0,5.395829315E0,9.449344448E0
1.803380833E-1,6.970105591E0,-1.996847534E0,1.582060089E0,7.421097368E0
1.903070835E-1,1.522483978E0,1.270857239E0,-9.505233765E-1,2.199211285E0
2.002760833E-1,-3.390449524E0,3.238066406E0,-1.005908203E-1,4.689385945E0
2.102450831E-1,-1.841919708E0,2.908601532E0,2.095342712E0,4.030271972E0
2.202130831E-1,7.650590515E-1,1.337768097E0,2.951711884E0,3.329796071E0
2.301820833E-1,2.204765167E0,-9.379495239E-1,4.656067657E0,5.236382796E0
2.401510831E-1,3.124153290E0,-2.728675690E0,4.039350128E0,5.789849243E0
2.501190831E-1,4.714296570E0,-2.086062012E0,3.127296753E0,6.029612910E0
2.600880833E-1,5.956712952E0,-4.321513367E-1,2.937790833E0,6.655809413E0
2.700570831E-1,6.456972656E0,1.142873383E0,2.427951050E0,6.992395995E0
2.800260833E-1,6.646478577E0,1.160386963E0,1.573527832E0,6.928070815E0
2.899940833E-1,6.395001526E0,-1.091230774E-1,-7.933502197E-2,6.396424502E0
2.999630831E-1,5.960754547E0,-1.744322662E0,-5.025050354E-1,6.231032630E0
3.099320834E-1,5.137765961E0,-2.481689301E0,-1.869612122E-1,5.708798065E0
3.199000834E-1,4.960235138E0,-3.291056213E0,3.673361206E-1,5.964052267E0
3.298690831E-1,6.276298370E0,-3.787573700E0,1.103355560E0,7.413165940E0
3.398380834E-1,7.817194061E0,-3.967050476E0,1.832938385E0,8.955762145E0
3.498060834E-1,8.652307434E0,-4.444707184E0,2.404898987E0,1.002004915E1
3.597750831E-1,9.905202026E0,-5.011129303E0,3.100352783E0,1.152547749E1
3.697440834E-1,1.122635468E1,-5.818550262E0,3.476221161E0,1.311375919E1
3.797130832E-1,1.165566193E1,-6.770271149E0,3.274141388E0,1.387123023E1
3.896810832E-1,1.232207611E1,-7.278015289E0,3.351680145E0,1.469819125E1
3.996500834E-1,1.465781891E1,-6.892117767E0,4.190835114E0,1.673069160E1
4.096190832E-1,1.643357620E1,-6.105952606E0,4.995411987E0,1.822907636E1
4.195870832E-1,1.688189392E1,-5.529351654E0,5.479056244E0,1.859010838E1
4.295560834E-1,1.733679794E1,-4.896916809E0,5.720354462E0,1.890150291E1
4.395250832E-1,1.733125946E1,-4.543651428E0,5.695955200E0,1.880056458E1
4.494940834E-1,1.721405319E1,-4.816084900E0,5.181175690E0,1.861082703E1
4.594620834E-1,1.745370483E1,-5.721701660E0,4.254901886E0,1.885401475E1
4.694310832E-1,1.749352203E1,-7.072941742E0,3.922742615E0,1.927271978E1
4.794000834E-1,1.721914261E1,-8.043822784E0,4.745731201E0,1.958887240E1
4.893680834E-1,1.733200790E1,-8.215066681E0,6.077811127E0,2.012027849E1
4.993370832E-1,1.909249695E1,-7.576045532E0,7.051236877E0,2.171727071E1
5.093060834E-1,2.222009308E1,-5.691763916E0,7.766150208E0,2.421656049E1
5.192750832E-1,2.308813797E1,-3.575165405E0,8.348888397E0,2.481023700E1
5.292430832E-1,2.216276230E1,-2.326162720E0,8.387358398E0,2.381064566E1
5.392120834E-1,2.064491867E1,-2.169139252E0,7.774383087E0,2.216661599E1
5.491810832E-1,1.884865402E1,-2.737357635E0,6.769672394E0,2.021369213E1
5.591490832E-1,1.719429428E1,-3.258873138E0,5.868396606E0,1.845811715E1
5.691180835E-1,1.587688385E1,-3.340603180E0,5.284760284E0,1.706352137E1
5.790870832E-1,1.533995041E1,-3.287463684E0,4.872367859E0,1.642746069E1
5.890560835E-1,1.539832901E1,-3.340453491E0,4.506678314E0,1.638832863E1
5.990240835E-1,1.556193878E1,-3.526516571E0,3.985611877E0,1.644674314E1
6.089930832E-1,1.559576843E1,-3.982917480E0,3.470532990E0,1.646621462E1
6.189620835E-1,1.538829987E1,-4.621639252E0,3.097209320E0,1.636313013E1
6.289300835E-1,1.484478012E1,-5.089715881E0,2.823428650E0,1.594504481E1
6.388990832E-1,1.422926010E1,-5.240602112E0,2.736160126E0,1.540851472E1
6.488680835E-1,1.377555359E1,-5.207221527E0,2.578088837E0,1.495083860E1
6.588370833E-1,1.342064163E1,-5.367538147E0,2.370470581E0,1.464729389E1
6.688050833E-1,1.315943481E1,-5.640420685E0,2.334994354E0,1.450645611E1
6.787740835E-1,1.260618530E1,-5.739664307E0,2.353705444E0,1.404989621E1
6.887430833E-1,1.098640366E1,-5.854026489E0,1.813029785E0,1.258005439E1
6.987110833E-1,8.677754517E0,-6.069727936E0,9.740245056E-1,1.063455426E1
7.086800835E-1,6.506369934E0,-6.260431366E0,4.755610657E-1,9.041681754E0
7.186490833E-1,4.599934387E0,-6.297554169E0,5.472619629E-1,7.817805353E0
7.286180835E-1,3.425925751E0,-6.092181244E0,9.924362183E-1,7.059502051E0
7.385860835E-1,3.018023987E0,-5.798941040E0,1.504820709E0,6.708253971E0
7.485550833E-1,3.491489410E0,-5.469176788E0,1.898951111E0,6.760799388E0
7.585240835E-1,4.688250732E0,-5.038222961E0,2.132166138E0,7.204826020E0
7.684920835E-1,6.145769806E0,-4.615651703E0,2.259251862E0,8.011176326E0
7.784610833E-1,7.499554596E0,-4.274660797E0,2.434387665E0,8.968962447E0
7.884300831E-1,8.103548584E0,-3.941304016E0,2.484533386E0,9.347421203E0
7.983990833E-1,8.390501862E0,-3.635340271E0,2.419119415E0,9.458771544E0
8.083670833E-1,8.776848450E0,-3.632196808E0,2.464175720E0,9.813158734E0
8.183360831E-1,9.198671265E0,-3.794459381E0,2.444117432E0,1.024632544E1
8.283050833E-1,9.550290070E0,-3.889362030E0,2.369572449E0,1.058064511E1
8.382730833E-1,9.729317780E0,-3.901037750E0,2.459535370E0,1.076694173E1
8.482420831E-1,9.762398987E0,-3.835623779E0,2.695295105E0,1.082963801E1
8.582110833E-1,9.276060333E0,-3.799548798E0,2.737657013E0,1.039118051E1
8.681800831E-1,8.455466766E0,-3.954476624E0,2.611469421E0,9.692913708E0
8.781480831E-1,7.726931763E0,-4.206402740E0,2.407294006E0,9.121094392E0
8.881170833E-1,7.279212799E0,-4.403842163E0,2.302511902E0,8.813757759E0
8.980860831E-1,7.207811279E0,-4.356690216E0,2.338586884E0,8.740839873E0
9.080540831E-1,7.339088287E0,-4.112847290E0,2.293081512E0,8.719859663E0
9.180230834E-1,7.528743896E0,-3.780987396E0,2.181563416E0,8.702704711E0
9.279920831E-1,7.858059082E0,-3.438649292E0,2.027683411E0,8.813903874E0
9.379610834E-1,8.267308044E0,-3.242257690E0,1.851350098E0,9.071279646E0
9.479290834E-1,8.617280273E0,-3.132685547E0,1.662143555E0,9.318474083E0
9.578980831E-1,8.728349304E0,-3.056643677E0,1.528321838E0,9.373522272E0
9.678670834E-1,8.464148712E0,-3.151995392E0,1.486558685E0,9.153509988E0
9.778350834E-1,8.381071472E0,-3.528013458E0,1.479972382E0,9.213010161E0
9.878040832E-1,8.524323578E0,-4.085753632E0,1.453327789E0,9.563975997E0
9.977730834E-1,8.936117249E0,-4.758005676E0,1.495839386E0,1.023378449E1
1.007742083E0,9.202862549E0,-5.393583984E0,1.745370483E0,1.080878094E1
1.017710083E0,9.126371613E0,-5.647755432E0,1.974094849E0,1.091260055E1
1.027679083E0,8.977131958E0,-5.533542938E0,1.896705780E0,1.071477897E1
1.037648083E0,8.579708405E0,-5.249134369E0,1.625320129E0,1.018854619E1
1.047617083E0,8.159831543E0,-4.934788055E0,1.188378754E0,9.609746512E0
1.057585083E0,8.009693756E0,-4.671784973E0,6.155200195E-1,9.292988421E0
1.067554083E0,7.899073792E0,-4.498595123E0,4.715194702E-2,9.090376678E0
1.077523083E0,7.508386230E0,-4.358037415E0,-3.511697388E-1,8.688594482E0
1.087491083E0,7.179071045E0,-4.274211731E0,-6.824308777E-1,8.382938559E0
1.097460083E0,6.968009949E0,-4.205953674E0,-9.943821716E-1,8.199512477E0
1.107429083E0,6.802005157E0,-4.133803711E0,-1.123713226E0,8.038553271E0
1.117398083E0,6.929839325E0,-4.085304565E0,-1.031355286E0,8.110245384E0
1.127366083E0,7.457492065E0,-4.216282196E0,-6.842271423E-1,8.594148605E0
1.137335083E0,7.908204803E0,-4.480183411E0,1.347198486E-2,9.089110413E0
1.147304083E0,7.979756012E0,-4.686005402E0,6.328839111E-1,9.275542824E0
1.157272083E0,7.993227997E0,-4.713398438E0,8.834628296E-1,9.321390734E0
1.167241083E0,7.852819977E0,-4.710105286E0,7.696994019E-1,9.189358550E0
1.177210083E0,7.587272186E0,-4.796475677E0,3.287164307E-1,8.982256545E0
1.187179083E0,7.451055450E0,-4.874164124E0,-1.092727661E-1,8.904360941E0
1.197147083E0,7.382797394E0,-4.875211945E0,-4.324507141E-1,8.857787674E0
1.207116083E0,7.608527985E0,-4.914430389E0,-6.795867920E-1,9.083125142E0
1.217085083E0,8.181386719E0,-4.957091675E0,-4.722679138E-1,9.577624105E0
1.227053083E0,8.989406433E0,-5.016817474E0,9.086105347E-2,1.029495708E1
1.237022083E0,9.775571594E0,-5.043911133E0,6.842271423E-1,1.102138858E1
1.246991083E0,1.023227188E1,-5.046755219E0,1.060843964E0,1.145838191E1
1.256960083E0,1.044003983E1,-5.008434906E0,1.075513458E0,1.162908341E1
1.266928083E0,1.041204803E1,-5.035079498E0,7.918533325E-1,1.159266154E1
1.276897084E0,1.016506165E1,-5.207221527E0,4.206253052E-1,1.142893521E1
1.286866083E0,9.959988098E0,-5.558840332E0,1.537303162E-1,1.140726531E1
1.296834083E0,9.320368195E0,-6.041586456E0,1.124162292E-1,1.110777510E1
1.306803084E0,8.333769836E0,-6.246959381E0,2.909948730E-1,1.041925617E1
1.316772083E0,7.738308105E0,-6.297105103E0,4.658312988E-1,9.987589489E0
1.326741084E0,7.816744995E0,-6.209836578E0,7.699987793E-1,1.001281533E1
1.336709084E0,8.681047668E0,-5.803431702E0,1.385369110E0,1.053373892E1
1.346678083E0,1.010922775E1,-5.121449890E0,2.125280457E0,1.153007163E1
1.356647084E0,1.171014862E1,-4.407285004E0,2.405497742E0,1.274119936E1
1.366616083E0,1.289224045E1,-3.966900787E0,2.260000305E0,1.367676011E1
1.376584083E0,1.327738953E1,-3.901935883E0,1.969155121E0,1.397825984E1
1.386553083E0,1.270213577E1,-4.249064026E0,1.384021912E0,1.346530040E1
1.396522083E0,1.174113419E1,-4.841681671E0,7.770341492E-1,1.272398898E1
1.406490083E0,1.081620758E1,-5.371280365E0,4.701722717E-1,1.208561381E1
1.416459083E0,1.029903305E1,-5.654192047E0,2.644999695E-1,1.175201811E1
1.426428083E0,1.008707382E1,-5.704038391E0,2.953358459E-1,1.159190819E1
1.436397083E0,1.000579285E1,-5.536087646E0,5.942642212E-1,1.145064657E1
1.446365083E0,1.011177246E1,-5.289999390E0,1.137634277E0,1.146848933E1
1.456334083E0,1.026864624E1,-5.032235413E0,1.776505737E0,1.157257368E1
1.466303083E0,1.036803955E1,-4.996759186E0,2.074985046E0,1.169484542E1
1.476271083E0,1.050006500E1,-5.228327637E0,2.284249878E0,1.195008671E1
1.486240083E0,1.044033920E1,-5.546266479E0,2.272125092E0,1.203845119E1
1.496209083E0,1.014066238E1,-5.826334076E0,2.202070770E0,1.190076964E1
1.506178083E0,9.787995758E0,-5.861810303E0,2.301464081E0,1.163883233E1
1.516146083E0,9.357341309E0,-5.677992554E0,2.124382324E0,1.114954869E1
1.526115083E0,9.043294373E0,-5.466931458E0,1.882635040E0,1.073372383E1
1.536084083E0,8.588240662E0,-5.181624756E0,1.614991608E0,1.015949362E1
1.546053083E0,8.120313721E0,-4.818779297E0,1.243464203E0,9.523987193E0
1.556021083E0,7.789950714E0,-4.470603333E0,9.407936096E-1,9.030765134E0
1.565990083E0,7.458689575E0,-4.264931030E0,8.250842285E-1,8.631480224E0
1.575959083E0,7.016060028E0,-4.178111572E0,7.539820862E-1,8.200622148E0
1.585927083E0,6.517446899E0,-4.373155975E0,4.760101318E-1,7.863090545E0
1.595896083E0,6.200855255E0,-4.756808167E0,2.999761963E-1,7.820985587E0
1.605865083E0,6.048771515E0,-5.098996582E0,3.727249146E-1,7.919995382E0
1.615834083E0,6.058650970E0,-5.346282349E0,4.815486145E-1,8.094558394E0
1.625802083E0,6.214476929E0,-5.451962585E0,7.075785828E-1,8.297245747E0
1.635771083E0,6.468199310E0,-5.400020599E0,9.180409241E-1,8.475884846E0
1.645740083E0,6.823410645E0,-5.251230011E0,9.970765686E-1,8.667670456E0
1.655709083E0,7.121889954E0,-5.110223236E0,1.001118164E0,8.822581006E0
1.665677083E0,7.091353455E0,-5.065017242E0,9.653425598E-1,8.767757966E0
1.675646083E0,6.632407837E0,-5.113217010E0,7.839198303E-1,8.411203969E0
1.685615083E0,5.968089294E0,-5.142406311E0,6.396199036E-1,7.903894364E0
1.695583083E0,5.481002197E0,-5.239105225E0,5.447172546E-1,7.601731745E0
1.705552083E0,5.267995148E0,-5.380411377E0,5.221142578E-1,7.548059536E0
1.715521083E0,5.357059937E0,-5.506149902E0,8.526269531E-1,7.729343480E0
1.725490083E0,5.698050842E0,-5.539231110E0,1.430275726E0,8.074438268E0
1.735458083E0,6.114035797E0,-5.535339203E0,1.968406677E0,8.479153181E0
1.745427083E0,6.433920593E0,-5.637576599E0,2.516267395E0,8.916793466E0
1.755396083E0,6.542893982E0,-5.830525360E0,2.814597015E0,9.204696844E0
1.765364083E0,6.485862579E0,-5.977819061E0,2.861000519E0,9.272866768E0
1.775333083E0,6.183940430E0,-6.453230438E0,2.456691284E0,9.269338401E0
1.785302083E0,5.930667114E0,-6.915918274E0,1.945504303E0,9.315992968E0
1.795271083E0,5.614524536E0,-7.049290924E0,1.574875031E0,9.148531011E0
1.805239083E0,5.724096680E0,-7.006479950E0,1.385369110E0,9.152884335E0
1.815208083E0,6.344855804E0,-6.740932159E0,1.627864838E0,9.399324736E0
1.825177083E0,7.247329102E0,-6.191873932E0,2.121388550E0,9.765417107E0
1.835146208E0,7.894283752E0,-5.266947327E0,2.651885376E0,9.853575298E0
1.845114208E0,8.593330078E0,-4.559368744E0,2.925666046E0,1.015838014E1
1.855083209E0,9.572144623E0,-4.703518982E0,3.031196594E0,1.108770473E1
1.865052208E0,9.704768829E0,-5.525160370E0,2.829865265E0,1.152033301E1
1.875020208E0,9.757459259E0,-6.934329987E0,2.298619995E0,1.218920003E1
1.884989208E0,1.092727661E1,-8.386310577E0,1.630259857E0,1.387059214E1
1.894958208E0,1.215981354E1,-8.974287872E0,9.151968384E-1,1.514055789E1
1.904927208E0,1.210637466E1,-8.546327820E0,8.723858643E-1,1.484469885E1
1.914895208E0,1.065304688E1,-7.786358185E0,1.086291046E0,1.323989463E1
1.924864208E0,8.891060944E0,-6.978637848E0,8.656498718E-1,1.133585906E1
1.934833208E0,8.303832092E0,-6.155948639E0,5.926176453E-1,1.035376872E1
1.944802208E0,8.608897705E0,-5.497917023E0,1.352437592E0,1.030384873E1
1.954770208E0,9.134604492E0,-4.690046997E0,2.944676514E0,1.068216550E1
1.964739208E0,9.687554626E0,-3.942501526E0,4.041296082E0,1.121267617E1
1.974708208E0,9.470655670E0,-3.743714905E0,3.938160553E0,1.091869171E1
1.984677208E0,9.146280212E0,-4.154460754E0,3.320844269E0,1.058026429E1
1.994645208E0,9.427245941E0,-5.007087708E0,2.814746704E0,1.103932481E1
2.004614208E0,9.446855164E0,-5.736221466E0,2.778222656E0,1.139586900E1
2.014583208E0,8.546178131E0,-6.206393738E0,2.600093079E0,1.087736034E1
2.024551208E0,7.493567047E0,-6.437812500E0,2.549049225E0,1.020277555E1
2.034520208E0,7.485932922E0,-6.267915802E0,2.444566498E0,1.006488279E1
2.044489208E0,8.605005798E0,-5.918991394E0,2.448308716E0,1.072729227E1
2.054458208E0,9.979148254E0,-5.459297333E0,2.900817719E0,1.173891267E1
2.064426208E0,1.065993256E1,-5.042114868E0,3.632196808E0,1.233896017E1
2.074395208E0,1.075872711E1,-4.826712799E0,3.666475525E0,1.234870067E1
2.084364208E0,1.020368134E1,-4.810396729E0,3.316503296E0,1.175815562E1
2.094333208E0,9.105564880E0,-4.794529724E0,3.341501312E0,1.081963299E1
2.104301208E0,8.361761627E0,-4.683610382E0,3.218008118E0,1.010993768E1
2.114270208E0,8.030650177E0,-4.614753571E0,2.798430634E0,9.675665703E0
2.124239208E0,7.711663513E0,-4.458179169E0,2.699336700E0,9.307606258E0
2.134207208E0,7.916587372E0,-4.075574799E0,2.676134949E0,9.297546118E0
2.144176208E0,8.682843933E0,-3.518882446E0,2.558030548E0,9.711736854E0
2.154145208E0,8.984616394E0,-3.066523132E0,2.320324860E0,9.772962873E0
2.164114208E0,8.645122375E0,-2.837349701E0,1.972448273E0,9.310168978E0
2.174082208E0,8.089777222E0,-2.970273285E0,1.671124878E0,8.778364155E0
2.184051208E0,7.763006744E0,-3.213667145E0,1.418749695E0,8.520843909E0
2.194020208E0,7.368726654E0,-3.472478943E0,1.238823853E0,8.239595078E0
2.203989208E0,6.831793213E0,-3.817062378E0,9.578581238E-1,7.884215616E0
2.213957208E0,6.482569427E0,-4.201762390E0,6.523434448E-1,7.752681184E0
2.223926208E0,6.314169617E0,-4.546794891E0,4.459226990E-1,7.793646694E0
2.233895208E0,6.176605682E0,-4.704866180E0,2.478845215E-1,7.768376295E0
2.243864208E0,6.073769531E0,-4.701273651E0,1.234931946E-1,7.681660031E0
2.253832208E0,6.175408173E0,-4.559817810E0,2.556683350E-1,7.680688176E0
2.263801208E0,6.676715698E0,-4.386777649E0,7.015910339E-1,8.019637188E0
2.273770208E0,7.340136108E0,-4.098926239E0,1.331930237E0,8.511922965E0
2.283738208E0,7.644752655E0,-3.963457947E0,1.729802856E0,8.783134974E0
2.293707208E0,7.694898376E0,-3.855831757E0,1.825453949E0,8.798362443E0
2.303676208E0,7.377558289E0,-3.899241486E0,1.650467834E0,8.506262078E0
2.313645208E0,6.966662750E0,-4.180656281E0,1.440155182E0,8.251443738E0
2.323613208E0,6.718329163E0,-4.537514191E0,1.240171051E0,8.201402685E0
2.333582208E0,6.696923676E0,-4.941224670E0,1.094374237E0,8.394173153E0
2.343551208E0,7.011569366E0,-5.197791138E0,9.987231445E-1,8.785020524E0
2.353519208E0,7.650889893E0,-5.315745850E0,9.416917419E-1,9.363762781E0
2.363488209E0,8.495134277E0,-5.338797913E0,1.374591522E0,1.012716996E1
2.373457208E0,9.435179443E0,-5.112618256E0,2.080673218E0,1.093117915E1
2.383426209E0,9.821226654E0,-5.080135803E0,2.538421326E0,1.134494846E1
2.393394209E0,9.317374420E0,-5.643564148E0,2.386936340E0,1.115171500E1
2.403363208E0,9.440568237E0,-5.752687225E0,2.409389648E0,1.131472039E1
2.413332209E0,9.256002045E0,-5.815855865E0,2.357297974E0,1.118278172E1
2.423301208E0,8.845405884E0,-5.945037231E0,2.151026917E0,1.087251534E1
2.433269208E0,8.909173279E0,-5.802982635E0,1.924098816E0,1.080509751E1
2.443238209E0,9.155111847E0,-5.633535004E0,1.684746552E0,1.088077022E1
2.453207208E0,9.820178833E0,-5.679489441E0,1.641187134E0,1.146237357E1
2.463176208E0,1.068762497E1,-5.907465363E0,2.125430145E0,1.239519777E1
2.473144208E0,1.137050491E1,-6.096522217E0,2.771486664E0,1.319610183E1
2.483113208E0,1.164323776E1,-6.391109619E0,2.967878265E0,1.360953964E1
2.493082208E0,1.144220581E1,-6.777605896E0,2.815644836E0,1.359367027E1
2.503051208E0,1.091215805E1,-7.324718170E0,2.359842682E0,1.335273557E1
2.513019208E0,1.042611877E1,-7.762407990E0,1.968855743E0,1.314668488E1
2.522988208E0,1.009485764E1,-7.960296478E0,1.717378693E0,1.297003702E1
2.532957208E0,9.843679962E0,-8.044870605E0,1.556014252E0,1.280777727E1
2.542925208E0,9.700876923E0,-8.027806091E0,1.517693939E0,1.268290497E1
2.552894208E0,9.674980774E0,-7.792645111E0,1.727407837E0,1.254250807E1
2.562863208E0,9.475445709E0,-7.559430084E0,1.969005432E0,1.228031095E1
2.572832208E0,9.145531769E0,-7.235054626E0,2.234553223E0,1.187349969E1
2.582800208E0,9.016051025E0,-6.876400452E0,2.716999969E0,1.166002350E1
2.592769208E0,9.077124023E0,-6.636150055E0,3.522474976E0,1.178305979E1
2.602738208E0,8.987460480E0,-6.588099976E0,4.110003204E0,1.187727382E1
2.612707208E0,8.779991913E0,-6.711443481E0,4.124972076E0,1.179606401E1
2.622675208E0,8.204738159E0,-7.051835632E0,3.670367432E0,1.142443483E1
2.632644208E0,7.506889343E0,-7.485932922E0,2.962190094E0,1.100759508E1
2.642613208E0,7.418722687E0,-7.381001129E0,2.681972809E0,1.080322184E1
2.652582208E0,7.087162170E0,-7.175179138E0,2.587070160E0,1.041172394E1
2.662550208E0,7.051087189E0,-6.683900757E0,2.339185638E0,9.993205158E0
2.672519208E0,6.785389709E0,-5.975124664E0,2.250569916E0,9.317118289E0
2.682488208E0,6.434818726E0,-5.344635773E0,2.083666992E0,8.620538945E0
2.692456208E0,6.175557861E0,-4.723726959E0,1.779649200E0,7.976105727E0
2.702425208E0,6.001170502E0,-4.190984802E0,1.579964447E0,7.488303457E0
2.712394208E0,5.981561279E0,-3.796405334E0,1.436412964E0,7.228765524E0
2.722363208E0,5.775439911E0,-3.744762726E0,1.367556152E0,7.017774852E0
2.732331208E0,5.456453247E0,-3.917503510E0,1.225202179E0,6.827945237E0
2.742300208E0,5.214855652E0,-4.063000946E0,9.388476562E-1,6.677134945E0
2.752269208E0,5.231471100E0,-4.185146942E0,7.632627869E-1,6.742871412E0
2.762238208E0,5.270090790E0,-4.389022980E0,7.487429810E-1,6.899130068E0
2.772206208E0,5.487588501E0,-4.558769989E0,9.244775391E-1,7.193793859E0
2.782175208E0,5.889203339E0,-4.581223297E0,1.201701050E0,7.557407510E0
2.792144208E0,6.336173859E0,-4.561614075E0,1.537901917E0,7.957421972E0
2.802113208E0,6.648873596E0,-4.688400421E0,1.764380951E0,8.324761783E0
2.812081208E0,6.826853485E0,-4.907245331E0,1.932930450E0,8.626888510E0
2.822050208E0,6.774163055E0,-5.121898956E0,2.090852051E0,8.746130363E0
2.832019083E0,6.397097168E0,-5.313350830E0,2.063009949E0,8.567996222E0
2.841987083E0,5.926026764E0,-5.460494843E0,1.921105042E0,8.284047423E0
2.851956083E0,5.595514069E0,-5.492677917E0,1.807042236E0,8.046408518E0
2.861925083E0,5.273833008E0,-5.451513519E0,1.503473511E0,7.732576986E0
2.871894083E0,5.157674561E0,-5.481002197E0,1.224154358E0,7.625060383E0
2.881862083E0,5.253625031E0,-5.571563873E0,1.003962250E0,7.723395636E0
2.891831083E0,5.865253143E0,-5.766009521E0,9.735754395E-1,8.282264749E0
2.901800083E0,7.066205750E0,-6.118825836E0,1.175954590E0,9.420942761E0
2.911769083E0,8.104596405E0,-6.282136230E0,1.551673279E0,1.037098879E1
2.921737083E0,8.600066071E0,-6.353687439E0,1.900447998E0,1.086011893E1
2.931706083E0,8.693471832E0,-6.373745728E0,2.136357422E0,1.098931800E1
2.941675083E0,8.491541748E0,-6.452182617E0,1.990261230E0,1.084887467E1
2.951644083E0,8.167765045E0,-6.611301727E0,1.786834259E0,1.065900901E1
2.961612083E0,7.972720642E0,-6.640790405E0,1.715881805E0,1.051706337E1
2.971581083E0,8.126001892E0,-6.684798889E0,1.584006042E0,1.064084198E1
2.981550083E0,8.679251404E0,-6.870263214E0,1.432820435E0,1.116167084E1
2.991519083E0,9.297465820E0,-7.367379456E0,1.398541718E0,1.194475072E1
3.001487083E0,9.887389069E0,-7.998167725E0,1.565744019E0,1.281337988E1
3.011456084E0,1.031834290E1,-8.302784271E0,1.839824066E0,1.337121458E1
3.021425083E0,1.056592804E1,-8.255931702E0,2.103725281E0,1.357294749E1
3.031394084E0,1.051787796E1,-7.980803833E0,2.187850342E0,1.338303686E1
3.041362084E0,1.020053787E1,-7.627388763E0,2.048639832E0,1.290057973E1
3.051331083E0,9.645342407E0,-7.327412567E0,1.767823792E0,1.224127469E1
3.061300084E0,9.128616943E0,-7.040309601E0,1.306333466E0,1.160190130E1
3.071268084E0,8.772058411E0,-6.793023834E0,9.256750488E-1,1.113333085E1
3.081237083E0,8.562494202E0,-6.618486786E0,6.959028625E-1,1.084458183E1
3.091206084E0,8.425229645E0,-6.513854370E0,5.490582275E-1,1.066378255E1
3.101175083E0,8.502918091E0,-6.424041138E0,6.027964783E-1,1.067385985E1
3.111143083E0,8.689280548E0,-6.260281677E0,9.830058289E-1,1.075458152E1
3.121112083E0,8.960666199E0,-6.035598907E0,1.430275726E0,1.089805861E1
3.131081083E0,9.080417175E0,-5.896388397E0,1.664538574E0,1.095408877E1
3.141050083E0,8.892408142E0,-5.876779175E0,1.740730133E0,1.080007395E1
3.151018083E0,8.357121277E0,-5.873336334E0,1.694326630E0,1.035414402E1
3.160987083E0,7.671247559E0,-5.689219208E0,1.514101410E0,9.669940919E0
3.170956083E0,7.171137543E0,-5.285508728E0,1.379830627E0,9.014751729E0
3.180925083E0,7.091503143E0,-4.765639801E0,1.417402496E0,8.660818055E0
3.190893083E0,7.094945984E0,-4.095184021E0,1.564097443E0,8.339975509E0
3.200862083E0,7.172634430E0,-3.443888397E0,1.770069122E0,8.151085612E0
3.210831083E0,7.354805603E0,-2.914589081E0,1.893412628E0,8.134679241E0
3.220800083E0,7.527097321E0,-2.652184753E0,1.770667877E0,8.174750319E0
3.230768083E0,7.565417633E0,-2.668800201E0,1.440604248E0,8.150667401E0
3.240737083E0,7.532037048E0,-2.856958923E0,1.078058167E0,8.127484592E0
3.250706083E0,7.372169495E0,-3.079995117E0,7.942483521E-1,8.029077371E0
3.260674083E0,7.159611511E0,-3.266207886E0,4.942721558E-1,7.884951231E0
3.270643083E0,7.141798553E0,-3.421584778E0,3.143463135E-1,7.925360722E0
3.280612083E0,7.301516418E0,-3.436853027E0,3.311114502E-1,8.076740403E0
3.290581083E0,7.422614594E0,-3.366349640E0,4.806504822E-1,8.164468273E0
3.300549083E0,7.527995453E0,-3.323688354E0,7.417076111E-1,8.262430030E0
3.310518083E0,7.670499115E0,-3.204236755E0,1.132544861E0,8.389657187E0
3.320487083E0,7.685018921E0,-2.974015503E0,1.331331482E0,8.347258684E0
3.330456083E0,7.851173401E0,-2.733166351E0,1.191821594E0,8.398307019E0
3.340424083E0,8.005053406E0,-2.474803619E0,1.037193146E0,8.442825511E0
3.350393083E0,8.099806366E0,-2.190245361E0,9.861492920E-1,8.448463075E0
3.360362083E0,8.180189209E0,-1.942211151E0,1.026116180E0,8.469981940E0
3.370331083E0,8.315058746E0,-1.801653442E0,1.077309723E0,8.575940375E0
3.380299083E0,8.576714630E0,-1.814526672E0,1.038540344E0,8.827859703E0
3.390268083E0,9.150920563E0,-1.890269165E0,1.064735870E0,9.404580115E0
3.400237083E0,9.774823151E0,-1.940414886E0,1.134939880E0,1.002997837E1
3.410206083E0,1.032732422E1,-2.013762360E0,1.230740662E0,1.059356347E1
3.420174083E0,1.061727127E1,-2.214944000E0,1.295855255E0,1.092298801E1
3.430143083E0,1.057131683E1,-2.447709961E0,1.276096344E0,1.092576979E1
3.440112083E0,1.046174469E1,-2.671195221E0,1.221459961E0,1.086624822E1
3.450081083E0,1.031954041E1,-2.970422974E0,1.230590973E0,1.080882422E1
3.460049083E0,1.013407608E1,-3.224145355E0,1.234482880E0,1.070600576E1
3.470018083E0,1.003677841E1,-3.361260223E0,1.301543427E0,1.066438027E1
3.479987083E0,9.978998566E0,-3.362457733E0,1.480720825E0,1.063386423E1
3.489956083E0,1.000699036E1,-3.347039795E0,1.698517914E0,1.068772635E1
3.499924083E0,1.035202286E1,-3.339405670E0,1.991907806E0,1.105819624E1
3.509893083E0,1.092054062E1,-3.367397461E0,2.098935242E0,1.161908354E1
3.519862083E0,1.159878021E1,-3.514242096E0,2.111658783E0,1.230206091E1
3.529831083E0,1.227582230E1,-3.866010590E0,2.182461548E0,1.305392620E1
3.539799083E0,1.278266830E1,-4.294120331E0,2.317331085E0,1.368232808E1
3.549768083E0,1.257849289E1,-4.572990417E0,2.451003113E0,1.360654772E1
3.559737084E0,1.175011551E1,-4.558171234E0,2.426304474E0,1.283468320E1
3.569705084E0,1.095152618E1,-4.291875000E0,2.198328552E0,1.196615081E1
3.579674083E0,1.054661819E1,-4.053869934E0,1.774410095E0,1.143737505E1
3.589643084E0,1.049856812E1,-3.863016815E0,1.453327789E0,1.128073548E1
3.599612083E0,1.077459412E1,-3.804039459E0,1.264869690E0,1.149619458E1
3.609580083E0,1.125419678E1,-3.855981445E0,1.268013153E0,1.196383698E1
3.619549084E0,1.160401932E1,-3.963757324E0,1.451681213E0,1.234795590E1
3.629518083E0,1.172691376E1,-4.004023590E0,1.668879547E0,1.250351431E1
3.639487084E0,1.148486710E1,-4.073179779E0,1.814826050E0,1.232016880E1
3.649455084E0,1.101020416E1,-4.293820953E0,1.822011108E0,1.195747543E1
3.659424083E0,1.063074326E1,-4.672383728E0,1.528321838E0,1.171237122E1
3.669393083E0,1.019859192E1,-5.114115143E0,1.659598846E0,1.152908145E1
3.679362083E0,9.856852570E0,-5.532345428E0,1.638941803E0,1.142149372E1
3.689330083E0,9.778415680E0,-5.884413300E0,1.571581879E0,1.152013900E1
3.699299083E0,9.445358276E0,-6.162834320E0,1.542841644E0,1.138313139E1
3.709268083E0,9.278006287E0,-6.054459686E0,1.456770630E0,1.117407998E1
3.719237083E0,9.231004028E0,-5.809718628E0,1.542093201E0,1.101554889E1
3.729205083E0,9.061107330E0,-5.556295624E0,1.588496704E0,1.074706513E1
3.739174083E0,9.028624878E0,-5.103786621E0,1.653760986E0,1.050236309E1
3.749143083E0,8.990454254E0,-4.720882874E0,1.661245422E0,1.028954514E1
3.759112083E0,9.081015930E0,-4.386478271E0,1.674867096E0,1.022307301E1
3.769080083E0,9.065448303E0,-4.059258728E0,1.877246246E0,1.010860959E1
3.779049083E0,8.893905029E0,-3.799099731E0,2.020198975E0,9.880076383E0
3.789018083E0,8.595874786E0,-3.608995056E0,2.010618896E0,9.537111565E0
3.798987083E0,8.295599213E0,-3.510649567E0,1.837429047E0,9.193354784E0
3.808955083E0,8.152496796E0,-3.485651550E0,1.721869354E0,9.032043224E0
3.818924083E0,8.113278351E0,-3.477119293E0,1.658251648E0,8.981394252E0
3.828893083E0,8.024213562E0,-3.380121002E0,1.753603363E0,8.881911170E0
3.838862584E0,7.906558228E0,-3.181633759E0,1.883982239E0,8.728450347E0
3.848830584E0,7.654332733E0,-3.004552002E0,1.861079865E0,8.430881365E0
3.858799583E0,7.343429260E0,-2.951562195E0,1.736538849E0,8.102668688E0
3.868768584E0,7.024891663E0,-3.002606049E0,1.521436157E0,7.789705639E0
3.878737583E0,6.773863678E0,-3.149151306E0,1.253343658E0,7.574513410E0
3.888705583E0,6.766229553E0,-3.414100342E0,9.921368408E-1,7.643446802E0
3.898674584E0,6.760691071E0,-3.719315643E0,8.134085083E-1,7.758987434E0
3.908643583E0,6.580914917E0,-3.986060944E0,8.008346558E-1,7.735532247E0
3.918612584E0,6.380930786E0,-4.219725037E0,8.439450073E-1,7.696401773E0
3.928580584E0,6.289470978E0,-4.313130798E0,9.719288635E-1,7.687989866E0
3.938549583E0,6.142776031E0,-4.232897644E0,1.019978943E0,7.529374269E0
3.948518583E0,5.900429993E0,-4.209246826E0,1.113684082E0,7.333016104E0
3.958487583E0,5.863007812E0,-4.313430176E0,1.166224823E0,7.371609107E0
3.968455583E0,6.124514008E0,-4.344266052E0,1.222657471E0,7.607707319E0
3.978424583E0,6.560257874E0,-4.354744263E0,1.293310547E0,7.979563467E0
3.988393583E0,6.802903290E0,-4.383484497E0,1.276844788E0,8.192970287E0
3.998362583E0,6.935976563E0,-4.370910645E0,1.191073151E0,8.284400159E0
4.008330583E0,7.135811005E0,-4.328099670E0,1.113085327E0,8.419691467E0
4.018299583E0,7.407645721E0,-4.238436127E0,1.115330658E0,8.607062124E0
4.028268583E0,7.666008453E0,-4.099375305E0,1.283580780E0,8.787499253E0
4.038237583E0,7.852221222E0,-4.095932465E0,1.360071716E0,8.960124773E0
4.048205583E0,8.015082550E0,-4.375251617E0,1.196611633E0,9.209574062E0
4.058174583E0,8.317004700E0,-4.901557159E0,1.113983459E0,9.717962179E0
4.068143583E0,8.714577942E0,-5.283562775E0,1.200054474E0,1.026158053E1
4.078112583E0,9.033863983E0,-5.409301300E0,1.355131989E0,1.061638459E1
4.088080583E0,9.305249634E0,-5.317841492E0,1.457668762E0,1.081627973E1
4.098049583E0,9.748477936E0,-4.992118835E0,1.514251099E0,1.105653784E1
4.108018583E0,1.014994308E1,-4.633314972E0,1.390608215E0,1.124378688E1
4.117987583E0,1.039079224E1,-4.475393372E0,1.069376221E0,1.136403426E1
4.127955583E0,1.052491333E1,-4.625082092E0,7.140151978E-1,1.151846356E1
4.137924583E0,1.047596512E1,-4.991071014E0,6.339317322E-1,1.162146740E1
4.147893583E0,1.030187714E1,-5.336552582E0,9.181906128E-1,1.163832204E1
4.157862583E0,9.984237671E0,-5.475014648E0,1.314416656E0,1.146248134E1
4.167830583E0,9.737550659E0,-5.491779785E0,1.671573944E0,1.130370282E1
4.177799583E0,9.747879181E0,-5.459896088E0,1.859433289E0,1.132647809E1
4.187768583E0,9.835147705E0,-5.369035034E0,1.860181732E0,1.135856257E1
4.197737583E0,9.919572144E0,-5.230872345E0,1.570534058E0,1.132371468E1
4.207706583E0,1.007809250E1,-5.101690979E0,1.072819061E0,1.134663562E1
4.217674583E0,1.023825943E1,-4.998405762E0,8.143066406E-1,1.142230763E1
4.227643583E0,1.064855621E1,-4.918771362E0,1.047671356E0,1.177640337E1
4.237612583E0,1.073357941E1,-4.829107819E0,1.273252258E0,1.183854639E1
4.247581583E0,1.037492523E1,-4.857548676E0,1.317410431E0,1.153128020E1
4.257549583E0,1.004276596E1,-4.956043854E0,1.360371094E0,1.128140631E1
4.267518583E0,9.854906616E0,-5.082081757E0,1.494043121E0,1.118833787E1
4.277487583E0,9.686656494E0,-5.131179657E0,1.725162506E0,1.109668889E1
4.287456583E0,9.496701508E0,-4.990023193E0,1.904339905E0,1.089560377E1
4.297424583E0,9.592502289E0,-4.683161316E0,2.018402710E0,1.086379536E1
4.307393583E0,9.936636658E0,-4.235292664E0,2.094743958E0,1.100283619E1
4.317362583E0,1.021251297E1,-3.786376190E0,2.060016174E0,1.108493268E1
4.327331583E0,1.018392242E1,-3.483555908E0,1.959575043E0,1.094017240E1
4.337299583E0,9.682614899E0,-3.233575745E0,2.000290375E0,1.040241342E1
4.347268583E0,8.873697052E0,-3.068319397E0,1.888772278E0,9.577293146E0
4.357237583E0,8.035290527E0,-3.062331848E0,1.589245148E0,8.744682404E0
4.367206583E0,7.345674591E0,-3.048560486E0,1.398392029E0,8.075156748E0
4.377174583E0,6.932384033E0,-3.020868073E0,1.318757629E0,7.676113208E0
4.387143584E0,7.030879211E0,-2.916984100E0,1.415007477E0,7.742370754E0
4.397112583E0,7.999814301E0,-2.556234283E0,1.712888031E0,8.571192914E0
4.407081584E0,9.323511658E0,-1.908381500E0,1.892963562E0,9.703252065E0
4.417049584E0,1.058463913E1,-1.037791901E0,1.986219635E0,1.081927289E1
4.427018583E0,1.108370132E1,-2.633024597E-1,2.067650299E0,1.127798479E1
4.436987584E0,1.064795746E1,7.484436035E-2,1.755549316E0,1.079196706E1
4.446956583E0,9.685009918E0,-1.025367737E-1,1.131047974E0,9.751369156E0
4.456924583E0,8.716673584E0,-4.879852295E-1,5.508544922E-1,8.747683615E0
4.466893584E0,8.059989166E0,-7.831713867E-1,4.047583008E-1,8.108058464E0
4.476862583E0,7.884404297E0,-9.160949707E-1,6.982978821E-1,7.968103980E0
4.486831583E0,8.018974457E0,-1.051263885E0,1.007704468E0,8.150127324E0
4.496799583E0,8.331225128E0,-1.304537201E0,1.350791016E0,8.540243897E0
4.506768583E0,8.857380981E0,-1.514400787E0,1.696122894E0,9.144585309E0
4.516737583E0,9.355395355E0,-1.628014526E0,1.759291534E0,9.657585633E0
4.526706583E0,9.891430664E0,-1.594933319E0,1.665287018E0,1.015664284E1
4.536675583E0,1.029364426E1,-1.489552460E0,1.504072266E0,1.050904905E1
4.546643583E0,1.010653336E1,-1.382824402E0,1.514550476E0,1.031252069E1
4.556612583E0,9.466015320E0,-1.466799774E0,1.216370544E0,9.655905184E0
4.566581583E0,8.837023315E0,-1.662742310E0,7.262896729E-1,9.021374050E0
4.576550583E0,8.584199066E0,-1.765877838E0,3.333567810E-1,8.770286477E0
4.586518583E0,8.760382690E0,-1.722168732E0,3.679348755E-1,8.935633503E0
4.596487583E0,9.423204346E0,-1.564247131E0,7.699987793E-1,9.583138700E0
4.606456583E0,1.029648834E1,-1.446292419E0,1.180145874E0,1.046432885E1
4.616425583E0,1.112217133E1,-1.457519073E0,1.336271210E0,1.129657814E1
4.626393583E0,1.173993668E1,-1.610500946E0,1.419498138E0,1.193460521E1
4.636362583E0,1.192465256E1,-1.791324921E0,1.401385803E0,1.213960731E1
4.646331583E0,1.171059769E1,-1.909279633E0,1.344055023E0,1.194110258E1
4.656300583E0,1.136751114E1,-1.987267456E0,1.255588989E0,1.160801642E1
4.666268583E0,1.112022537E1,-2.022893372E0,1.427731018E0,1.139253816E1
4.676237583E0,1.105451202E1,-2.061962128E0,1.805994415E0,1.138927301E1
4.686206583E0,1.100825821E1,-2.220931549E0,2.249821472E0,1.145320839E1
4.696175583E0,1.087728058E1,-2.551444244E0,2.735860748E0,1.150260990E1
4.706143583E0,1.109747269E1,-3.033890991E0,3.120261383E0,1.192033664E1
4.716112583E0,1.142484192E1,-3.540886688E0,3.276985474E0,1.240175492E1
4.726081583E0,1.141885437E1,-3.844904480E0,3.126248932E0,1.244776920E1
4.736050583E0,1.099942657E1,-3.789819031E0,2.691702576E0,1.194133058E1
4.746018583E0,1.044497955E1,-3.462000732E0,1.927841034E0,1.117137494E1
4.755987583E0,1.020847137E1,-3.133583679E0,1.156644745E0,1.074104564E1
4.765956583E0,1.029723679E1,-3.097209320E0,6.944059753E-1,1.077534179E1
4.775925583E0,1.078043198E1,-3.435356140E0,7.884104919E-1,1.134200055E1
4.785894583E0,1.111244156E1,-3.888314209E0,1.261277161E0,1.184044614E1
4.795862583E0,1.096784225E1,-4.211791534E0,1.865869904E0,1.189597504E1
4.805831583E0,1.055215668E1,-4.384981384E0,2.393073578E0,1.167488216E1
4.815800583E0,1.008303223E1,-4.558320923E0,2.698438568E0,1.138979364E1
4.825769583E0,9.723030853E0,-4.702920227E0,2.704276428E0,1.113408724E1
4.835737708E0,9.741741943E0,-4.655019836E0,2.590513000E0,1.110322041E1
4.845706708E0,9.972412262E0,-4.491260376E0,2.416125641E0,1.120080752E1
4.855675709E0,1.030382309E1,-4.238286438E0,2.463127899E0,1.141047068E1
4.865644708E0,1.062864761E1,-4.042493591E0,2.750979309E0,1.169947827E1
4.875612708E0,1.051368668E1,-4.116439819E0,2.911595306E0,1.166019175E1
4.885581709E0,1.004396347E1,-4.450245667E0,2.914140015E0,1.136565443E1
4.895550708E0,9.477241974E0,-4.806355133E0,2.819836121E0,1.099411847E1
4.905519709E0,8.832382965E0,-5.004243622E0,2.797831879E0,1.053001929E1
4.915487709E0,8.275989990E0,-4.916076965E0,3.042722626E0,1.009544373E1
4.925456708E0,7.912845154E0,-4.540807343E0,3.490441589E0,9.768072084E0
4.935425709E0,7.634573822E0,-4.031117249E0,3.697311401E0,9.391844085E0
4.945394708E0,7.402406616E0,-3.559897156E0,3.588637390E0,8.963638200E0
4.955363708E0,7.226821747E0,-3.249293060E0,3.413202209E0,8.627560911E0
4.965331708E0,7.069648590E0,-2.941083984E0,3.364253998E0,8.363498739E0
4.975300708E0,6.902296600E0,-2.636916504E0,3.319946136E0,8.100436368E0
4.985269708E0,6.614594879E0,-2.471809845E0,3.105442200E0,7.714044372E0
4.995238708E0,6.215075684E0,-2.441123657E0,2.787203979E0,7.235658677E0
5.005206708E0,5.776637421E0,-2.512974243E0,2.448757782E0,6.758771642E0
5.015175708E0,5.422623596E0,-2.675536194E0,2.149979095E0,6.417612539E0
5.025144708E0,5.194048920E0,-2.882555695E0,2.029180298E0,6.277327791E0
5.035113708E0,5.251379700E0,-3.037483521E0,2.281405792E0,6.481366158E0
5.045081708E0,5.600304108E0,-3.279530182E0,2.652633820E0,7.011076272E0
5.055050708E0,5.952521667E0,-3.477119293E0,3.037782898E0,7.533325807E0
5.065019708E0,6.062093811E0,-3.557352448E0,3.250041504E0,7.743804465E0
5.074988708E0,5.920488281E0,-3.620221710E0,3.246598663E0,7.661500480E0
5.084956708E0,5.704786835E0,-3.668870544E0,3.092119904E0,7.454287987E0
5.094925708E0,5.481002197E0,-3.726500702E0,2.875670013E0,7.224795540E0
5.104894708E0,5.390141144E0,-3.823049927E0,2.693049774E0,7.135954693E0
5.114863708E0,5.497917023E0,-3.942202148E0,2.707719269E0,7.286960478E0
5.124832708E0,5.723198547E0,-4.053869934E0,2.833008728E0,7.564046636E0
5.134800708E0,5.915548553E0,-4.198169861E0,2.978955231E0,7.841716594E0
5.144769708E0,6.070476379E0,-4.340374146E0,3.156186676E0,8.102533279E0
5.154738708E0,6.299649811E0,-4.436773682E0,3.456162872E0,8.444857029E0
5.164707708E0,6.517895966E0,-4.558769989E0,3.660338287E0,8.755765415E0
5.174675708E0,6.732399902E0,-4.658612366E0,3.742816772E0,9.002030605E0
5.184644708E0,7.112459564E0,-4.831502838E0,3.727548523E0,9.371505680E0
5.194613708E0,7.565717010E0,-5.010829926E0,3.618874512E0,9.769582548E0
5.204582708E0,7.960745544E0,-5.125192108E0,3.377725983E0,1.005236771E1
5.214550708E0,8.258476410E0,-5.195545807E0,3.057242432E0,1.022462029E1
5.224519708E0,8.606502686E0,-5.187911682E0,2.961591339E0,1.047651370E1
5.234488708E0,9.074729004E0,-5.040767670E0,2.878065033E0,1.077233974E1
5.244457708E0,9.711654510E0,-4.902006226E0,2.966082001E0,1.127579446E1
5.254425708E0,1.049677185E1,-4.747228088E0,3.413800964E0,1.201550793E1
5.264394708E0,1.101424576E1,-4.556075592E0,3.782334595E0,1.250509854E1
5.274363708E0,1.102981339E1,-4.247267761E0,3.803889771E0,1.241634584E1
5.284332708E0,1.052536240E1,-3.943249969E0,3.489543457E0,1.176900112E1
5.294301708E0,1.026490402E1,-4.078718262E0,3.049458618E0,1.145876935E1
5.304269708E0,1.039273819E1,-4.793631592E0,2.810405731E0,1.178500281E1
5.314238708E0,1.052027298E1,-5.503455505E0,2.940185852E0,1.223147002E1
5.324207708E0,1.051054321E1,-5.740113373E0,2.815195770E0,1.230226595E1
5.334176708E0,1.056981995E1,-5.508844299E0,2.337838440E0,1.214635533E1
5.344144708E0,1.081605789E1,-5.047204285E0,2.058369598E0,1.211190591E1
5.354113708E0,1.120165604E1,-4.883295135E0,2.015858002E0,1.238496479E1
5.364082708E0,1.181852325E1,-4.904251556E0,2.283501434E0,1.299782882E1
5.374051708E0,1.231264572E1,-4.818629608E0,2.838247833E0,1.352316852E1
5.384019708E0,1.218286560E1,-4.702920227E0,3.335813141E0,1.347840206E1
5.393988708E0,1.159144547E1,-4.697681122E0,3.558549957E0,1.300358003E1
5.403957708E0,1.100616257E1,-4.763693848E0,3.719016266E0,1.255625245E1
5.413926709E0,1.037911652E1,-4.854554901E0,3.817212067E0,1.207741160E1
5.423894709E0,9.698481903E0,-4.951553192E0,3.863615570E0,1.155447773E1
5.433863708E0,9.198671265E0,-4.896467743E0,3.912563782E0,1.113099747E1
5.443832709E0,8.947643280E0,-4.674928436E0,3.864663391E0,1.080975945E1
5.453801708E0,8.872948608E0,-4.321363678E0,3.675307159E0,1.053144262E1
5.463770709E0,9.062155151E0,-3.969894562E0,3.448528748E0,1.047735985E1
5.473738709E0,9.110055542E0,-3.611839142E0,3.161725159E0,1.029732975E1
5.483707708E0,9.031169586E0,-3.154390411E0,2.756068726E0,9.955306011E0
5.493676708E0,8.709937592E0,-2.549498291E0,2.197280731E0,9.337611954E0
5.503645708E0,8.339907074E0,-1.955234070E0,1.642833710E0,8.722149555E0
5.513613708E0,8.090226288E0,-1.446442108E0,1.305435333E0,8.321545384E0
5.523582708E0,7.914342041E0,-1.025367737E0,1.175954590E0,8.066663383E0
5.533551708E0,7.832612000E0,-8.087681580E-1,1.124761047E0,7.954181547E0
5.543520708E0,7.780520325E0,-8.349636841E-1,1.175206146E0,7.912949536E0
5.553489708E0,7.784711609E0,-1.091979218E0,1.324745178E0,7.971769141E0
5.563457708E0,7.730524292E0,-1.407672729E0,1.518143005E0,8.002956112E0
5.573426708E0,7.583230591E0,-1.649120636E0,1.729503479E0,7.950859535E0
5.583395708E0,7.439679108E0,-1.911974030E0,1.800156555E0,7.889552176E0
5.593364708E0,7.213200073E0,-2.156565399E0,1.707948303E0,7.719981673E0
5.603332708E0,6.934030609E0,-2.353705444E0,1.629062347E0,7.501636751E0
5.613301708E0,6.999594269E0,-2.597698059E0,1.463506622E0,7.608167110E0
5.623270708E0,7.361990662E0,-2.670147400E0,1.162332916E0,7.917045626E0
5.633239708E0,7.815697174E0,-2.630330200E0,9.222322083E-1,8.297847403E0
5.643207708E0,8.257428589E0,-2.482886810E0,9.632469177E-1,8.676272151E0
5.653176708E0,8.658893738E0,-2.221081238E0,1.362616425E0,9.042475665E0
5.663145708E0,8.937913513E0,-2.140997772E0,1.883233795E0,9.381723667E0
5.673114708E0,8.955576782E0,-2.182461548E0,2.276765442E0,9.494690874E0
5.683082708E0,9.011710052E0,-2.309846649E0,2.468666382E0,9.624999913E0
5.693051708E0,9.315727844E0,-2.684816895E0,2.433040466E0,9.995534650E0
5.703020708E0,9.528285828E0,-3.064277802E0,2.244282990E0,1.025742830E1
5.712989708E0,9.523645477E0,-3.255280609E0,2.133513336E0,1.028827265E1
5.722958708E0,9.390123138E0,-3.205733643E0,2.065255280E0,1.013491096E1
5.732926708E0,9.267677765E0,-3.069067841E0,1.870360565E0,9.940184968E0
5.742895708E0,9.299711151E0,-3.027454376E0,1.694925385E0,9.925869209E0
5.752864708E0,9.558972015E0,-3.234922943E0,1.858834534E0,1.026128346E1
5.762833708E0,9.921218719E0,-3.607947235E0,2.287842407E0,1.080194830E1
5.772801708E0,1.016087036E1,-4.062551880E0,2.697989502E0,1.127061496E1
5.782770708E0,1.036534515E1,-4.372257843E0,2.987786865E0,1.163975469E1
5.792739708E0,1.058838135E1,-4.350103912E0,3.321293335E0,1.191923710E1
5.802708708E0,1.083342178E1,-4.115541687E0,3.483555908E0,1.210106907E1
5.812676708E0,1.113549362E1,-3.821403351E0,3.388952637E0,1.225101391E1
5.822645708E0,1.131152756E1,-3.690126343E0,3.119662628E0,1.230040581E1
5.832614708E0,1.121437958E1,-3.928879852E0,2.749931488E0,1.219674257E1
5.842583458E0,1.098909805E1,-4.358037415E0,2.328108673E0,1.204876990E1
5.852552458E0,1.070873108E1,-4.637356567E0,2.012564850E0,1.184197680E1
5.862520458E0,1.058194473E1,-4.709955597E0,1.836830292E0,1.172753945E1
5.872489458E0,1.072384964E1,-4.741539917E0,1.631906433E0,1.183833901E1
5.882458458E0,1.108519821E1,-4.883893890E0,1.649420013E0,1.222516361E1
5.892427458E0,1.192510162E1,-5.131628723E0,1.936522980E0,1.312599647E1
5.902395458E0,1.295256500E1,-5.298232269E0,2.400707703E0,1.419871835E1
5.912364458E0,1.371193588E1,-5.137017517E0,2.807262268E0,1.490928758E1
5.922333458E0,1.381432297E1,-4.750820618E0,2.996019745E0,1.491247632E1
5.932302458E0,1.332888245E1,-4.449048157E0,3.071163483E0,1.438350381E1
5.942270458E0,1.258013947E1,-4.418361969E0,2.912343750E0,1.364784150E1
5.952239458E0,1.172481812E1,-4.711602173E0,2.568059692E0,1.289439744E1
5.962208458E0,1.111199249E1,-5.228028259E0,2.255210266E0,1.248577711E1
5.972177458E0,1.064286804E1,-5.812562714E0,2.118245087E0,1.231030007E1
5.982146458E0,1.040276733E1,-6.175408173E0,2.190694427E0,1.229440427E1
5.992114458E0,1.026999344E1,-6.326444092E0,2.260599060E0,1.227220307E1
6.002083458E0,1.003438339E1,-6.372697906E0,2.485281830E0,1.214400076E1
6.012052458E0,9.814340973E0,-6.262077942E0,2.788251801E0,1.197118444E1
6.022021458E0,9.731563110E0,-6.063890076E0,3.109932861E0,1.188047835E1
6.031989458E0,9.523495789E0,-5.802383881E0,3.304977264E0,1.163131572E1
6.041958458E0,9.139693909E0,-5.525908813E0,3.178041229E0,1.114314224E1
6.051927458E0,8.498277740E0,-5.188360748E0,2.870281219E0,1.036235138E1
6.061896458E0,7.798932037E0,-4.770729218E0,2.456840973E0,9.466745257E0
6.071865459E0,7.092251587E0,-4.389172668E0,2.023043060E0,8.582398995E0
6.081833459E0,6.448889465E0,-4.123924255E0,1.670077057E0,7.834799549E0
6.091802458E0,5.983507233E0,-3.981420593E0,1.398990784E0,7.321969951E0
6.101771459E0,5.703140259E0,-3.969445496E0,1.164129181E0,7.045388783E0
6.111740458E0,5.573210449E0,-4.038002930E0,1.053808594E0,6.962517858E0
6.121708458E0,5.574707336E0,-4.163142700E0,9.548643494E-1,7.022882952E0
6.131677459E0,5.486690369E0,-4.369713135E0,8.725355530E-1,7.068202202E0
6.141646458E0,5.394182739E0,-4.512665863E0,9.069639587E-1,7.091117277E0
6.151615459E0,5.375471649E0,-4.594395905E0,8.559201050E-1,7.122974688E0
6.161583459E0,5.388045502E0,-4.586612091E0,7.158114624E-1,7.111992045E0
6.171552458E0,5.395230560E0,-4.440815277E0,6.276448059E-1,7.015931237E0
6.181521458E0,5.362748108E0,-4.179458771E0,5.966592407E-1,6.825169971E0
6.191490458E0,5.242847443E0,-4.041595459E0,6.007008362E-1,6.647013213E0
6.201459458E0,5.079537048E0,-4.090693359E0,6.277944946E-1,6.552067972E0
6.211427458E0,4.946613464E0,-4.205504608E0,6.709048462E-1,6.527278689E0
6.221396458E0,4.942871246E0,-4.356091461E0,8.346643066E-1,6.641097310E0
6.231365458E0,5.007237396E0,-4.547243958E0,1.059945831E0,6.846410674E0
6.241334458E0,5.238656158E0,-4.731959839E0,1.300645294E0,7.178205935E0
6.251302458E0,5.735772400E0,-4.875661011E0,1.655557251E0,7.707919637E0
6.261271458E0,6.124963074E0,-5.017266541E0,2.021396484E0,8.171546974E0
6.271240458E0,6.191724243E0,-5.188061371E0,2.197131042E0,8.371428475E0
6.281209458E0,6.339167633E0,-5.281317444E0,2.201921082E0,8.539661391E0
6.291178458E0,6.642436981E0,-5.219196625E0,2.096839600E0,8.703948458E0
6.301146458E0,6.910679169E0,-5.082979889E0,2.033670959E0,8.816461234E0
6.311115458E0,7.167694702E0,-4.997058563E0,1.948947144E0,8.952364861E0
6.321084458E0,7.470514984E0,-5.036277008E0,1.847158813E0,9.196992765E0
6.331053458E0,7.858957214E0,-5.302872620E0,1.905836792E0,9.670360924E0
6.341021458E0,8.293054504E0,-5.610033875E0,1.984872437E0,1.020720097E1
6.350990458E0,8.594527588E0,-5.801336060E0,2.203268280E0,1.060074505E1
6.360959458E0,8.941955109E0,-5.709127808E0,2.446512451E0,1.088752151E1
6.370928458E0,9.485474854E0,-5.287005615E0,2.659070435E0,1.118021991E1
6.380896458E0,1.020428009E1,-4.655917969E0,2.833008728E0,1.156852811E1
6.390865458E0,1.073896820E1,-4.225712585E0,2.911146240E0,1.190196863E1
6.400834458E0,1.120270386E1,-4.253704376E0,2.780168610E0,1.230137846E1
6.410803458E0,1.154309601E1,-4.664899292E0,2.489323425E0,1.269649881E1
6.420772458E0,1.159788208E1,-5.256469116E0,2.306254120E0,1.294063926E1
6.430740458E0,1.132455048E1,-5.653443604E0,2.374063110E0,1.287800620E1
6.440709458E0,1.094643677E1,-5.667963409E0,2.614912262E0,1.260111318E1
6.450678458E0,1.070169571E1,-5.394931183E0,3.072810059E0,1.237229709E1
6.460647458E0,1.048344955E1,-4.919220428E0,3.472628632E0,1.208968957E1
6.470615458E0,1.041369461E1,-4.456233215E0,3.680097198E0,1.190991878E1
6.480584458E0,1.057745407E1,-4.071233826E0,3.698808289E0,1.192219201E1
6.490553458E0,1.081081879E1,-3.815864868E0,3.411106567E0,1.196119875E1
6.500522458E0,1.104807541E1,-3.787573700E0,3.009791107E0,1.206086760E1
6.510491458E0,1.137095398E1,-3.825145569E0,2.658471680E0,1.228811640E1
6.520459458E0,1.162871796E1,-3.858226776E0,2.437231750E0,1.249212127E1
6.530428458E0,1.185010757E1,-3.978127441E0,2.376607819E0,1.272394641E1
6.540397458E0,1.173649384E1,-4.144880676E0,2.584076385E0,1.271230798E1
6.550366458E0,1.127485382E1,-4.179608459E0,2.858755188E0,1.235977090E1
6.560334458E0,1.077249847E1,-4.003873901E0,3.002306671E0,1.187819746E1
6.570303458E0,1.035845947E1,-3.711232452E0,2.957849121E0,1.139384923E1
6.580272458E0,1.003019211E1,-3.390449524E0,2.857707367E0,1.096660354E1
6.590241458E0,9.739197235E0,-3.091221771E0,2.731370087E0,1.057676687E1
6.600209458E0,9.397607574E0,-2.848576355E0,2.603984985E0,1.015923979E1
6.610178459E0,9.070238342E0,-2.640958099E0,2.492766266E0,9.770249072E0
6.620147458E0,8.843459930E0,-2.473606110E0,2.357896729E0,9.480779910E0
6.630116459E0,8.748108215E0,-2.242636414E0,2.242486725E0,9.305243798E0
6.640085458E0,8.570278015E0,-1.989213409E0,2.039059753E0,9.031301120E0
6.650053458E0,8.154442749E0,-1.789678345E0,1.644031219E0,8.508861485E0
6.660022459E0,7.727829895E0,-1.714833984E0,1.256187744E0,8.014862328E0
6.669991458E0,7.386389923E0,-1.735191650E0,9.668394470E-1,7.648818515E0
6.679960459E0,7.250322876E0,-1.843117218E0,6.816824341E-1,7.511920781E0
6.689928459E0,7.164700928E0,-1.979483643E0,4.049079895E-1,7.444141680E0
6.699897458E0,7.174879761E0,-2.176623688E0,1.829196167E-1,7.500003323E0
6.709866458E0,7.369325409E0,-2.313588867E0,1.788780212E-1,7.726037003E0
6.719835458E0,7.608078918E0,-2.460283813E0,4.041595459E-1,8.006197987E0
6.729804458E0,7.830516357E0,-2.633024597E0,7.717950439E-1,8.297317189E0
6.739772458E0,8.095465393E0,-2.721340942E0,1.200054474E0,8.624522433E0
6.749741458E0,8.298443298E0,-2.723885651E0,1.616787872E0,8.882438699E0
6.759710458E0,8.244555359E0,-2.672392731E0,1.956281891E0,8.884898132E0
6.769679458E0,8.005801849E0,-2.743794250E0,2.139500885E0,8.729188632E0
6.779647458E0,7.773484955E0,-2.878813477E0,2.163900146E0,8.567210702E0
6.789616458E0,7.532186737E0,-2.955005035E0,2.179467773E0,8.379497096E0
6.799585458E0,7.472910004E0,-2.954406281E0,2.072140961E0,8.298594372E0
6.809554458E0,7.791746979E0,-2.903512115E0,1.810634766E0,8.510000108E0
6.819523458E0,8.385262756E0,-2.683020630E0,1.659598846E0,8.959101491E0
6.829491458E0,9.050030365E0,-2.303260345E0,1.526076508E0,9.462397547E0
6.839460708E0,9.340725861E0,-2.050286407E0,1.466650085E0,9.674910668E0
6.849429708E0,9.358688507E0,-2.068099365E0,1.387015686E0,9.684311956E0
6.859398708E0,9.355395355E0,-2.443818054E0,1.312620392E0,9.758003957E0
6.869366708E0,9.392069092E0,-2.887794800E0,1.306483154E0,9.912477938E0
6.879335708E0,9.570947113E0,-3.226989441E0,1.320703583E0,1.018630195E1
6.889304708E0,9.943821716E0,-3.494483185E0,1.494192810E0,1.064535651E1
6.899273708E0,1.043824356E1,-3.634591827E0,1.856888580E0,1.120781966E1
6.909242708E0,1.092263626E1,-3.515589294E0,2.304457855E0,1.170358394E1
6.919210708E0,1.146705414E1,-3.176694031E0,2.405946808E0,1.213974034E1
6.929179708E0,1.190683960E1,-2.905907135E0,2.235002289E0,1.245842529E1
6.939148708E0,1.208856171E1,-2.882705383E0,1.990710297E0,1.258595415E1
6.949117708E0,1.191267746E1,-3.219954071E0,1.820963287E0,1.247380839E1
6.959085708E0,1.169532944E1,-3.725901947E0,1.783690796E0,1.240341198E1
6.969054708E0,1.161719193E1,-4.014651489E0,1.753603363E0,1.241578429E1
6.979023708E0,1.164189056E1,-4.107159119E0,1.812281342E0,1.247744908E1
6.988992708E0,1.186253174E1,-4.204756165E0,1.960622864E0,1.273749095E1
6.998961709E0,1.222986786E1,-4.418511658E0,2.330803070E0,1.321081209E1
7.008929709E0,1.243718674E1,-4.733905792E0,2.591860199E0,1.355769956E1
7.018898708E0,1.267055145E1,-4.986730042E0,2.569257202E0,1.385681901E1
7.028867709E0,1.283700531E1,-4.978646851E0,2.668051758E0,1.402476845E1
7.038836708E0,1.254466324E1,-4.615502014E0,2.828069000E0,1.366270138E1
7.048804708E0,1.234408035E1,-4.034410400E0,2.747536469E0,1.327410048E1
7.058773709E0,1.239721985E1,-3.619922333E0,2.406994629E0,1.313729503E1
7.068742708E0,1.230935257E1,-3.560196533E0,2.127825165E0,1.298933408E1
7.078711708E0,1.209454926E1,-3.865561523E0,2.052082672E0,1.286202670E1
7.088679709E0,1.176493469E1,-4.345463562E0,1.989363098E0,1.269859470E1
7.098648708E0,1.126198059E1,-4.950954437E0,1.968406677E0,1.245868298E1
7.108617708E0,1.071516769E1,-5.577401733E0,2.268981628E0,1.229107426E1
7.118586708E0,1.009276199E1,-5.979615326E0,2.814297638E0,1.206399251E1
7.128555708E0,9.537416840E0,-6.053411865E0,3.485651550E0,1.182183919E1
7.138523708E0,9.033714294E0,-5.681585083E0,3.947740631E0,1.137862290E1
7.148492708E0,8.411458282E0,-4.971761169E0,3.684438171E0,1.044251522E1
7.158461708E0,7.804021454E0,-4.163891144E0,2.833308105E0,9.288077042E0
7.168430708E0,7.420518951E0,-3.382066956E0,1.746717682E0,8.339874163E0
7.178398708E0,7.230264587E0,-2.862347717E0,9.419911194E-1,7.833077794E0
7.188367708E0,7.248227234E0,-2.440824280E0,4.155358887E-1,7.659444580E0
7.198336708E0,7.245383148E0,-2.241139526E0,-1.511856079E-2,7.584095985E0
7.208305708E0,7.196434937E0,-2.230361938E0,-3.046165466E-1,7.540290539E0
7.218274708E0,7.288194122E0,-2.497556305E0,-3.896397400E-1,7.714102682E0
7.228242708E0,7.229815521E0,-2.966231689E0,-1.407073975E-2,7.814663198E0
7.238211708E0,7.040010223E0,-3.294648743E0,5.968089294E-1,7.795680546E0
7.248180708E0,6.763834534E0,-3.516637115E0,1.044378204E0,7.694603306E0
7.258149708E0,6.445446625E0,-3.791914673E0,1.303040314E0,7.590804512E0
7.268117708E0,6.127807159E0,-4.048630829E0,1.388811951E0,7.474639176E0
7.278086708E0,5.858217773E0,-4.161645813E0,1.289718018E0,7.300779679E0
7.288055708E0,5.649402008E0,-4.052971802E0,1.166973267E0,7.050117026E0
7.298024708E0,5.476960602E0,-3.893703003E0,1.348395996E0,6.853918023E0
7.307993708E0,5.381908264E0,-3.961811371E0,1.787283325E0,6.917750182E0
7.317961708E0,5.614823914E0,-4.280648346E0,1.757195892E0,7.275846016E0
7.327930708E0,5.892047424E0,-4.637506256E0,1.688488770E0,7.685940505E0
7.337899708E0,6.023025055E0,-4.764891357E0,1.595532074E0,7.843898461E0
7.347868708E0,6.005661163E0,-4.579726410E0,1.418600006E0,7.684678651E0
7.357836708E0,5.935756531E0,-4.407883759E0,1.229842529E0,7.495008837E0
7.367805708E0,5.923182678E0,-4.481979675E0,1.068777466E0,7.504300109E0
7.377774708E0,5.985453186E0,-4.712350616E0,1.042881317E0,7.688920575E0
7.387743708E0,6.146069183E0,-4.997956696E0,1.096769257E0,7.997289562E0
7.397712708E0,6.403533783E0,-5.213658142E0,1.166673889E0,8.339580571E0
7.407680708E0,6.730453949E0,-5.349575500E0,1.363813934E0,8.704996085E0
7.417649708E0,7.109765167E0,-5.397775269E0,1.634600830E0,9.075056940E0
7.427618708E0,7.606881409E0,-5.456902313E0,1.952389984E0,9.563171768E0
7.437587708E0,8.181835785E0,-5.518873444E0,2.262095947E0,1.012509155E1
7.447555708E0,8.725804596E0,-5.512137451E0,2.586920471E0,1.064027644E1
7.457524708E0,9.235644379E0,-5.362299042E0,2.938090210E0,1.107626978E1
7.467493708E0,9.444310455E0,-5.122497711E0,3.161276093E0,1.119949326E1
7.477462708E0,9.511221313E0,-4.924908600E0,3.051554260E0,1.113687743E1
7.487431708E0,9.656269684E0,-4.887636108E0,2.551893311E0,1.111956341E1
7.497399708E0,9.914632416E0,-5.092110901E0,1.972897339E0,1.131909242E1
7.507368708E0,1.012180161E1,-5.521567841E0,1.694326630E0,1.165372567E1
7.517337708E0,1.031085846E1,-5.901627502E0,1.666634216E0,1.199669450E1
7.527306709E0,1.041474243E1,-6.174959106E0,1.894310760E0,1.225501502E1
7.537274709E0,1.050874695E1,-6.209237823E0,2.173180847E0,1.239802854E1
7.547243708E0,1.048389862E1,-5.839057617E0,2.562221832E0,1.227076627E1
7.557212709E0,1.045725403E1,-5.393883362E0,2.731669464E0,1.207932770E1
7.567181708E0,1.060784088E1,-5.046156464E0,2.557880859E0,1.202217691E1
7.577150709E0,1.083851120E1,-4.797224121E0,2.375559998E0,1.208842296E1
7.587118709E0,1.091275681E1,-4.588558044E0,2.329306183E0,1.206518932E1
7.597087708E0,1.091305618E1,-4.466412048E0,2.337688751E0,1.202116552E1
7.607056709E0,1.100676132E1,-4.404440918E0,2.367925873E0,1.208945688E1
7.617025708E0,1.120479950E1,-4.513863373E0,2.455643463E0,1.232690874E1
7.626993708E0,1.115929413E1,-4.754562836E0,2.546953583E0,1.239446190E1
7.636962708E0,1.088012466E1,-4.934039612E0,2.590513000E0,1.222426346E1
7.646931708E0,1.042851379E1,-4.951553192E0,2.577490082E0,1.182857701E1
7.656900708E0,9.921368408E0,-4.960235138E0,2.602039032E0,1.139333537E1
7.666869708E0,9.566755829E0,-4.900808716E0,2.694846039E0,1.108164872E1
7.676837708E0,9.370813293E0,-4.587210846E0,2.804717560E0,1.080375332E1
7.686806708E0,9.350455627E0,-3.959416351E0,2.945874023E0,1.057289800E1
7.696775708E0,9.097332001E0,-3.278632050E0,2.955154724E0,1.011156848E1
7.706744708E0,8.729397125E0,-2.690954132E0,2.865940247E0,9.573777823E0
7.716712708E0,8.457263031E0,-2.201771393E0,2.719095612E0,9.152408218E0
7.726681708E0,8.076604614E0,-1.912273407E0,2.615960083E0,8.702389260E0
7.736650708E0,7.714806976E0,-1.839674377E0,2.441423035E0,8.298385080E0
7.746619708E0,7.331603851E0,-1.830693054E0,2.314487000E0,7.903208346E0
7.756588708E0,7.005282440E0,-1.695673828E0,2.282154236E0,7.560259239E0
7.766556708E0,6.885681152E0,-1.611399078E0,2.152823181E0,7.392148508E0
7.776525708E0,6.969806213E0,-1.669927368E0,1.798959045E0,7.389391701E0
7.786494708E0,7.187004547E0,-1.793570251E0,1.484163666E0,7.554645617E0
7.796463708E0,7.343429260E0,-1.886826324E0,1.321601715E0,7.696278190E0
7.806431708E0,7.489076385E0,-1.965412903E0,1.309027863E0,7.852557987E0
7.816400708E0,7.694898376E0,-2.032174072E0,1.346749420E0,8.071860163E0
7.826369708E0,7.815996552E0,-1.882635040E0,1.455722809E0,8.170265949E0
7.836338708E0,7.830666046E0,-1.655557251E0,1.463656311E0,8.136491279E0
7.846307458E0,7.901618500E0,-1.454076233E0,1.417552185E0,8.158392415E0
7.856275458E0,8.112978973E0,-1.277593231E0,1.343306580E0,8.322087770E0
7.866244458E0,8.364605713E0,-1.193318481E0,1.460213470E0,8.574547283E0
7.876213458E0,8.478967896E0,-1.258582764E0,1.759590912E0,8.750604969E0
7.886182458E0,8.456514587E0,-1.515298920E0,1.982776794E0,8.817038823E0
7.896150458E0,8.289911041E0,-1.937570801E0,2.100132751E0,8.768543964E0
7.906119458E0,8.419990540E0,-2.410287781E0,2.118544464E0,9.010769030E0
7.916088458E0,8.799900513E0,-2.856210480E0,2.182012482E0,9.505649152E0
7.926057458E0,9.294022980E0,-3.075055389E0,2.313588867E0,1.005920087E1
7.936026458E0,9.843081207E0,-2.999761963E0,2.392325134E0,1.056447060E1
7.945994458E0,1.030457153E1,-2.767145691E0,2.482138367E0,1.095455616E1
7.955963458E0,1.051473450E1,-2.615511017E0,2.608625336E0,1.114475058E1
7.965932458E0,1.065379532E1,-2.665507050E0,2.586770782E0,1.128271535E1
7.975901458E0,1.060948746E1,-2.896027679E0,2.435734863E0,1.126414687E1
7.985869458E0,1.048973648E1,-3.150648193E0,2.230361938E0,1.117746259E1
7.995838458E0,1.053703812E1,-3.295247498E0,2.040856018E0,1.122732923E1
8.005807458E0,1.080049026E1,-3.332819366E0,1.863325195E0,1.145557749E1
8.015776458E0,1.120584732E1,-3.268752594E0,1.657802582E0,1.178999860E1
8.025745458E0,1.176074341E1,-3.271297302E0,1.491498413E0,1.229800956E1
8.035713458E0,1.239991425E1,-3.459156647E0,1.577868805E0,1.296970732E1
8.045682458E0,1.286604492E1,-3.789519653E0,1.884431305E0,1.354424795E1
8.055651458E0,1.301393738E1,-3.993695068E0,2.235151978E0,1.379521913E1
8.065620458E0,1.282278488E1,-3.973337402E0,2.435884552E0,1.364348767E1
8.075588458E0,1.244257553E1,-3.876788177E0,2.434237976E0,1.325792921E1
8.085557458E0,1.208526855E1,-3.871698761E0,2.314636688E0,1.289966319E1
8.095526458E0,1.193677734E1,-4.102967834E0,2.231260071E0,1.281793743E1
8.105495458E0,1.195563812E1,-4.469854889E0,2.272424469E0,1.296459790E1
8.115464458E0,1.195967972E1,-4.800816650E0,2.457439728E0,1.311948130E1
8.125432458E0,1.175385773E1,-4.972210236E0,2.735411682E0,1.305214630E1
8.135401458E0,1.149669250E1,-4.955594788E0,2.960992584E0,1.286465450E1
8.145370458E0,1.127141098E1,-4.858746185E0,3.004851379E0,1.263650473E1
8.155339458E0,1.114567245E1,-4.779860229E0,2.931952972E0,1.247675545E1
8.165307458E0,1.110346024E1,-4.821473694E0,2.921474762E0,1.245264842E1
8.175276458E0,1.113654144E1,-4.948409729E0,2.839744720E0,1.251293188E1
8.185245459E0,1.113040421E1,-5.144801331E0,2.723436584E0,1.256073188E1
8.195214458E0,1.105451202E1,-5.349575500E0,2.667752380E0,1.256730269E1
8.205183459E0,1.085422852E1,-5.496420135E0,2.700085144E0,1.246255876E1
8.215151459E0,1.048180298E1,-5.511089630E0,2.760858765E0,1.215987844E1
8.225120458E0,9.905202026E0,-5.290448456E0,2.821033630E0,1.157843266E1
8.235089459E0,9.304351501E0,-4.874912567E0,2.803220673E0,1.087169607E1
8.245058458E0,8.863218842E0,-4.323609009E0,2.780318298E0,1.024599497E1
8.255026458E0,8.550070038E0,-3.737278290E0,2.765349426E0,9.732322648E0
8.264995459E0,8.195457458E0,-3.280877380E0,2.712958374E0,9.235248913E0
8.274964458E0,7.820786591E0,-2.972069550E0,2.570754089E0,8.752524030E0
8.284933458E0,7.485932922E0,-2.796035614E0,2.349214783E0,8.329214667E0
8.294902458E0,7.179220734E0,-2.761008453E0,2.078128510E0,7.967621736E0
8.304870458E0,6.788982239E0,-2.860102386E0,1.730850677E0,7.567450665E0
8.314839458E0,6.428831177E0,-3.027604065E0,1.360820160E0,7.235197867E0
8.324808458E0,6.196514282E0,-3.224444733E0,1.143322449E0,7.078207351E0
8.334777458E0,6.034102020E0,-3.322939911E0,1.209335175E0,6.993912239E0
8.344745458E0,5.957611084E0,-3.251688080E0,1.388512573E0,6.927811513E0
8.354714458E0,6.043382721E0,-3.087180176E0,1.473086700E0,6.944288342E0
8.364683458E0,6.139482880E0,-3.004851379E0,1.397643585E0,6.976803669E0
8.374652458E0,6.326593781E0,-3.111579437E0,1.298699341E0,7.168984268E0
8.384621458E0,6.656657410E0,-3.380121002E0,1.371597748E0,7.590624891E0
8.394589458E0,6.862030334E0,-3.591032410E0,1.487307129E0,7.886384252E0
8.404558458E0,6.856940918E0,-3.701203308E0,1.671424255E0,7.969328938E0
8.414527458E0,6.741381226E0,-3.770209808E0,1.764680328E0,7.923054934E0
8.424496458E0,6.601122894E0,-3.926933899E0,1.721270599E0,7.871366196E0
8.434464458E0,6.451434174E0,-4.228406982E0,1.644330597E0,7.886967200E0
8.444433458E0,6.346951447E0,-4.430187378E0,1.674717407E0,7.919282244E0
8.454402458E0,6.300547943E0,-4.436474304E0,1.862576752E0,7.927698329E0
8.464371458E0,6.256689148E0,-4.463418274E0,1.898801422E0,7.916672825E0
8.474340458E0,6.381679230E0,-4.638404388E0,1.832639008E0,8.099332738E0
8.484308458E0,6.604565735E0,-4.971611481E0,1.823208618E0,8.465299695E0
8.494277458E0,6.882088623E0,-5.353617096E0,1.728755035E0,8.888923096E0
8.504246458E0,7.159611511E0,-5.782774658E0,1.652114410E0,9.350401155E0
8.514215458E0,7.416028290E0,-6.142626343E0,1.582060089E0,9.758701149E0
8.524183458E0,7.663164368E0,-6.326893158E0,1.493144989E0,1.004903712E1
8.534152458E0,7.817643127E0,-6.307733002E0,1.419348450E0,1.014483069E1
8.544121458E0,8.026009827E0,-6.123915253E0,1.436712341E0,1.019722090E1
8.554090458E0,8.340356140E0,-5.772296448E0,1.472338257E0,1.024932811E1
8.564059458E0,8.803043976E0,-5.434748383E0,1.447340240E0,1.044628484E1
8.574027458E0,9.413474579E0,-5.295537872E0,1.388662262E0,1.088965600E1
8.583996458E0,9.938732300E0,-5.545068970E0,1.203347626E0,1.144439754E1
8.593965458E0,1.020921982E1,-5.976471863E0,1.019978943E0,1.187378382E1
8.603934458E0,9.898915100E0,-6.165528717E0,9.473799133E-1,1.170041851E1
8.613902458E0,9.245972900E0,-5.873785400E0,9.041198730E-1,1.099121479E1
8.623871458E0,8.843160553E0,-5.361101532E0,7.584727478E-1,1.036909731E1
8.633840458E0,8.989705811E0,-4.992418213E0,6.680607605E-1,1.030462786E1
8.643809458E0,9.486522675E0,-4.736899567E0,5.819897461E-1,1.061937107E1
8.653778458E0,1.010264145E1,-4.515060883E0,2.859054565E-1,1.106936678E1
8.663746458E0,1.085153412E1,-4.451293488E0,5.403762817E-2,1.172914006E1
8.673715458E0,1.135808075E1,-4.545597382E0,1.990859985E-2,1.223392211E1
8.683684458E0,1.146346161E1,-4.790637817E0,4.402345276E-1,1.243201388E1
8.693653458E0,1.131826355E1,-5.254822540E0,1.010997620E0,1.251951940E1
8.703622459E0,1.101694016E1,-5.816155243E0,1.579814758E0,1.255772459E1
8.713590459E0,1.073911789E1,-6.334377594E0,2.004631348E0,1.262820412E1
8.723559458E0,1.047147446E1,-6.542594604E0,2.436782684E0,1.258551673E1
8.733528459E0,1.039977356E1,-6.355184326E0,2.778671722E0,1.250058696E1
8.743497458E0,1.038091278E1,-5.739813995E0,2.963836670E0,1.222673884E1
8.753465458E0,1.012958542E1,-4.979245605E0,3.041525116E0,1.168983587E1
8.763434459E0,9.937684479E0,-4.273612976E0,3.037633209E0,1.123603828E1
8.773403458E0,9.979447632E0,-3.567381592E0,2.920426941E0,1.099292864E1
8.783372459E0,9.987680511E0,-2.885250092E0,2.786904602E0,1.076314393E1
8.793341458E0,9.812395020E0,-2.237996063E0,2.491568756E0,1.036820318E1
8.803309458E0,9.566456451E0,-1.787283325E0,2.031575317E0,9.941768907E0
8.813278458E0,9.264534302E0,-1.527872772E0,1.460662537E0,9.502606278E0
8.823247458E0,8.835376740E0,-1.354383545E0,9.183403015E-1,8.985632188E0
8.833216458E0,8.295599213E0,-1.321302338E0,4.610412598E-1,8.412809591E0
8.843184208E0,7.861352234E0,-1.395398254E0,1.007405090E-1,7.984869685E0
8.853153208E0,7.545509033E0,-1.595981140E0,-9.789642334E-2,7.713069822E0
8.863122209E0,7.410938873E0,-1.883533173E0,-7.664062500E-2,7.646933110E0
8.873091208E0,7.454797668E0,-2.139800262E0,5.134323120E-2,7.755990560E0
8.883060209E0,7.654033356E0,-2.245929565E0,2.564167786E-1,7.980863098E0
8.893028209E0,7.940088501E0,-2.141297150E0,6.480024719E-1,8.249246395E0
8.902997208E0,8.095465393E0,-1.892065430E0,1.069226532E0,8.382106949E0
8.912966209E0,8.130193176E0,-1.664538574E0,1.394200745E0,8.415136687E0
8.922935208E0,8.163274384E0,-1.506317596E0,1.609902191E0,8.455756999E0
8.932903208E0,8.234675903E0,-1.500928802E0,1.766326904E0,8.554682065E0
8.942872208E0,8.176596680E0,-1.565893707E0,1.865869904E0,8.531718869E0
8.952841208E0,8.039631500E0,-1.702858887E0,1.907932434E0,8.436563828E0
8.962810208E0,7.992629242E0,-1.922003174E0,1.913919983E0,8.440338151E0
8.972779208E0,7.998467102E0,-2.115251312E0,1.892364807E0,8.487096598E0
8.982747208E0,8.117170258E0,-2.284848633E0,1.864522705E0,8.636285728E0
8.992716208E0,8.352331238E0,-2.412084045E0,1.847907257E0,8.887876449E0
9.002685208E0,8.601113892E0,-2.462978210E0,1.798060913E0,9.125702433E0
9.012654208E0,8.918453979E0,-2.423310699E0,1.771266632E0,9.410028779E0
9.022622208E0,9.387728119E0,-2.456840973E0,1.779948578E0,9.865785511E0
9.032591208E0,9.772577820E0,-2.627785492E0,1.774260406E0,1.027407095E1
9.042560208E0,1.005459137E1,-2.960842896E0,1.705104218E0,1.061926451E1
9.052529208E0,1.027717850E1,-3.373235321E0,1.588796082E0,1.093267522E1
9.062498208E0,1.048704208E1,-3.718267822E0,1.635199585E0,1.124621914E1
9.072466208E0,1.065678909E1,-3.969445496E0,1.872456207E0,1.152517868E1
9.082435208E0,1.081545914E1,-4.031117249E0,2.187700653E0,1.174776986E1
9.092404208E0,1.085527634E1,-3.850892029E0,2.448159027E0,1.177539283E1
9.102373208E0,1.097098572E1,-3.515738983E0,2.579136658E0,1.180571447E1
9.112341208E0,1.133951935E1,-3.221600647E0,2.665057983E0,1.208577444E1
9.122310208E0,1.189396637E1,-3.209326172E0,2.806663513E0,1.263501367E1
9.132279208E0,1.234273315E1,-3.509452057E0,2.983445892E0,1.317422730E1
9.142248208E0,1.249137405E1,-3.900139618E0,3.157982941E0,1.346173730E1
9.152217208E0,1.225980560E1,-4.107159119E0,3.359314270E0,1.335876423E1
9.162185208E0,1.183199524E1,-4.131857758E0,3.355721741E0,1.297417544E1
9.172154208E0,1.148337021E1,-4.173471222E0,3.102448425E0,1.260598428E1
9.182123208E0,1.144280457E1,-4.269122314E0,2.857857056E0,1.254314668E1
9.192092208E0,1.161255157E1,-4.442611542E0,2.664908295E0,1.271573386E1
9.202060208E0,1.192300598E1,-4.657414856E0,2.499651947E0,1.304215644E1
9.212029208E0,1.213212112E1,-4.841831360E0,2.428849182E0,1.328649699E1
9.221998208E0,1.212224167E1,-4.921465759E0,2.506687317E0,1.332115046E1
9.231967208E0,1.226279938E1,-4.994813232E0,2.539469147E0,1.348233330E1
9.241936208E0,1.225890747E1,-5.093757477E0,2.521656189E0,1.351243603E1
9.251904208E0,1.213137268E1,-5.083129578E0,2.463427277E0,1.338196112E1
9.261873208E0,1.193962143E1,-5.022355957E0,2.394420776E0,1.317239045E1
9.271842208E0,1.174098450E1,-4.937482452E0,2.374212799E0,1.295632418E1
9.281811208E0,1.147693359E1,-4.993166656E0,2.347717896E0,1.273434322E1
9.291779208E0,1.128712830E1,-5.180427246E0,2.372566223E0,1.264377958E1
9.301748208E0,1.095272369E1,-5.446124725E0,2.317181396E0,1.244956869E1
9.311717208E0,1.056502991E1,-5.629493408E0,2.609373779E0,1.225234200E1
9.321686208E0,9.884544983E0,-5.360053711E0,2.942431183E0,1.162292160E1
9.331655208E0,9.014554138E0,-4.820126495E0,2.899919586E0,1.062569242E1
9.341623208E0,8.397537231E0,-4.360133057E0,2.738255768E0,9.850250579E0
9.351592208E0,8.306825867E0,-3.997586975E0,2.461481323E0,9.541642831E0
9.361561208E0,8.280780029E0,-3.698808289E0,1.959125977E0,9.278506089E0
9.371530208E0,8.084089050E0,-3.318598938E0,1.518891449E0,8.869759068E0
9.381498208E0,7.948022003E0,-3.010090485E0,1.122665405E0,8.572751956E0
9.391467209E0,7.818541260E0,-2.956352234E0,8.976832581E-1,8.406868691E0
9.401436208E0,7.598199463E0,-2.993624725E0,6.691085815E-1,8.194030166E0
9.411405209E0,7.493117981E0,-3.150348816E0,4.742138672E-1,8.142259731E0
9.421374208E0,7.439978485E0,-3.430117035E0,3.793112183E-1,8.201393768E0
9.431342208E0,7.375911713E0,-3.732039185E0,3.754193115E-1,8.274849227E0
9.441311209E0,7.242389374E0,-3.966601410E0,3.951782227E-1,8.266939967E0
9.451280208E0,7.050638123E0,-4.165238342E0,4.159849548E-1,8.199619007E0
9.461249208E0,6.828050995E0,-4.277953949E0,4.189787292E-1,8.068377380E0
9.471218208E0,6.568939819E0,-4.398603058E0,4.508624268E-1,7.918456677E0
9.481186208E0,6.333928528E0,-4.469555511E0,5.062472534E-1,7.768646172E0
9.491155208E0,6.216273193E0,-4.508025513E0,5.273533630E-1,7.696911589E0
9.501124208E0,6.114484863E0,-4.528532867E0,5.420228577E-1,7.628127152E0
9.511093208E0,6.135590973E0,-4.511468353E0,4.999603271E-1,7.632089073E0
9.521061208E0,6.134543152E0,-4.481231232E0,4.495152283E-1,7.610263923E0
9.531030208E0,6.185736694E0,-4.515959015E0,4.293072510E-1,7.670823228E0
9.540999208E0,6.297554169E0,-4.581223297E0,3.704795837E-1,7.796412670E0
9.550968208E0,6.302493896E0,-4.756059723E0,3.353027344E-1,7.902781873E0
9.560937208E0,6.349196777E0,-5.034031677E0,4.343966675E-1,8.114337626E0
9.570905208E0,6.413113861E0,-5.295238495E0,8.177494812E-1,8.356811254E0
9.580874208E0,6.353537750E0,-5.505700836E0,1.376986542E0,8.519171062E0
9.590843208E0,6.599775696E0,-5.556445312E0,1.923649750E0,8.839205400E0
9.600812208E0,7.407795410E0,-5.235063629E0,2.537672882E0,9.419188272E0
9.610780208E0,8.085286560E0,-4.953349457E0,2.857108612E0,9.903060094E0
9.620749208E0,8.629704437E0,-5.098248138E0,2.758763123E0,1.039589855E1
9.630718208E0,9.038504333E0,-5.618715820E0,2.595452728E0,1.095449236E1
9.640687208E0,9.005572815E0,-6.220464478E0,2.763104095E0,1.128845713E1
9.650656208E0,8.986113281E0,-6.753805389E0,3.296594696E0,1.171459157E1
9.660624208E0,9.214987335E0,-6.754404144E0,4.274660797E0,1.219879879E1
9.670593208E0,9.784852295E0,-6.286177826E0,4.932542725E0,1.263286760E1
9.680562208E0,1.057176590E1,-5.717360687E0,5.013075256E0,1.302234123E1
9.690531208E0,1.091125992E1,-5.216801605E0,4.657564545E0,1.296007405E1
9.700499208E0,1.074300980E1,-4.865482178E0,3.820355530E0,1.239678558E1
9.710468208E0,9.901160431E0,-4.411176910E0,2.306403809E0,1.108201056E1
9.720437208E0,8.548423462E0,-4.012256470E0,8.035290527E-1,9.477309988E0
9.730406208E0,7.533833313E0,-3.855233002E0,-4.875361633E-1,8.476978082E0
9.740375208E0,7.197333069E0,-4.210743713E0,-1.481918335E0,8.469241281E0
9.750343208E0,7.439679108E0,-4.871170349E0,-1.930385742E0,9.099643669E0
9.760312208E0,8.102500763E0,-5.423521729E0,-1.780996399E0,9.911460777E0
9.770281208E0,9.200018463E0,-5.575904846E0,-8.878038025E-1,1.079440828E1
9.780250208E0,1.026176056E1,-5.296436005E0,2.700384521E-1,1.155114215E1
9.790218208E0,1.074914703E1,-5.031786346E0,1.196012878E0,1.192868319E1
9.800187208E0,1.080827408E1,-5.080135803E0,1.810335388E0,1.207906795E1
9.810156208E0,1.079405365E1,-5.120851135E0,2.282453613E0,1.216323580E1
9.820125208E0,1.046593597E1,-5.022206268E0,2.463277588E0,1.186701766E1
9.830094208E0,9.796977081E0,-4.902305603E0,2.436932373E0,1.122283385E1
9.840062208E0,9.341474304E0,-4.752616882E0,2.401755524E0,1.075262475E1
9.850031208E0,8.912765808E0,-4.535268860E0,2.495610352E0,1.030699418E1
9.860000208E0,8.654403076E0,-4.167483673E0,2.662363586E0,9.967687427E0
9.869969208E0,8.756939850E0,-3.553011475E0,2.971919861E0,9.906573259E0
9.879938208E0,8.987460480E0,-2.778522034E0,3.294948120E0,9.967512914E0
9.889906208E0,8.914113007E0,-2.015109558E0,3.347788239E0,9.732921623E0
9.899875208E0,8.721763000E0,-1.397643585E0,3.134332123E0,9.372651454E0
9.909844209E0,8.417595520E0,-1.021026764E0,2.636467438E0,8.879716805E0
9.919813208E0,7.902816010E0,-8.837622070E-1,2.008972321E0,8.201920891E0
9.929781208E0,7.369774475E0,-9.142987061E-1,1.427581329E0,7.562242154E0
9.939750209E0,6.931485901E0,-1.094523926E0,9.467811584E-1,7.080951488E0
9.949719208E0,6.850204926E0,-1.361119537E0,6.556365967E-1,7.014828099E0
9.959688209E0,7.136709137E0,-1.626667328E0,7.099736023E-1,7.354095894E0
9.969657208E0,7.743098145E0,-1.934876404E0,1.043180695E0,8.049070849E0
9.979625208E0,8.631351013E0,-2.099084930E0,1.419498138E0,8.995629651E0
9.989594208E0,9.151219940E0,-2.183359680E0,1.765578461E0,9.572311800E0
9.999563208E0,9.128616943E0,-2.463726654E0,1.986818390E0,9.661730882E0
1.000953221E1,8.928483124E0,-2.878663788E0,2.009870453E0,9.593961399E0
1.001950021E1,8.591234436E0,-3.200344849E0,2.090552673E0,9.403293400E0
1.002946921E1,8.251590729E0,-3.322939911E0,2.138453064E0,9.148970473E0
1.003943821E1,8.052953796E0,-3.241658936E0,2.126627655E0,8.937615045E0
1.004940721E1,8.010292511E0,-2.963836670E0,2.209854584E0,8.822276985E0
1.005937621E1,8.267457733E0,-2.701582031E0,2.471510468E0,9.042000157E0
1.006934421E1,8.923244019E0,-2.485730896E0,2.778522034E0,9.670745917E0
1.007931321E1,9.898915100E0,-2.224075012E0,2.933749237E0,1.056134056E1
1.008928221E1,1.042162811E1,-1.945504303E0,2.940634918E0,1.100193861E1
1.009925121E1,1.037148239E1,-1.927691345E0,2.777923279E0,1.090873497E1
1.010921921E1,1.015937347E1,-2.286195831E0,2.430944824E0,1.069341169E1
1.011918821E1,9.817484436E0,-2.871778107E0,2.098785553E0,1.044198309E1
1.012915721E1,9.615554352E0,-3.466192017E0,1.864522705E0,1.038989016E1
1.013912621E1,9.606722717E0,-3.865561523E0,1.714684296E0,1.049627693E1
1.014909521E1,9.689949646E0,-4.050277405E0,1.702409821E0,1.063945818E1
1.015906321E1,9.957144012E0,-4.074676666E0,1.821262665E0,1.091167744E1
1.016903221E1,1.045605652E1,-3.899690552E0,2.017055511E0,1.134042403E1
1.017900121E1,1.092128906E1,-3.553011475E0,2.352358246E0,1.172314099E1
1.018897021E1,1.143636795E1,-3.044219513E0,2.672542419E0,1.213261173E1
1.019893921E1,1.195713501E1,-2.499801636E0,2.652484131E0,1.250031031E1
1.020890721E1,1.209305237E1,-2.149080963E0,2.455044708E0,1.252548239E1
1.021887621E1,1.195548843E1,-2.116897888E0,2.225571899E0,1.234374865E1
1.022884521E1,1.180894318E1,-2.574795685E0,2.148631897E0,1.227588411E1
1.023881421E1,1.142933258E1,-3.067121887E0,2.389930115E0,1.207264038E1
1.024878221E1,1.085048630E1,-3.092868347E0,2.616409149E0,1.158207599E1
1.025875121E1,1.044842239E1,-3.048261108E0,2.588417358E0,1.118755249E1
1.026872021E1,1.048359924E1,-3.244952087E0,2.381547546E0,1.122975226E1
1.027868921E1,1.097667389E1,-3.591631165E0,2.286046143E0,1.177341034E1
1.028865721E1,1.162752045E1,-3.941004639E0,2.204316101E0,1.247356239E1
1.029862621E1,1.218286560E1,-4.158951416E0,2.120191040E0,1.304662030E1
1.030859521E1,1.255783585E1,-4.323758698E0,1.873354340E0,1.341281428E1
1.031856421E1,1.248239273E1,-4.410278778E0,1.771715698E0,1.335663370E1
1.032853321E1,1.264046402E1,-4.407734070E0,1.521885223E0,1.347314310E1
1.033850121E1,1.280317566E1,-4.362977142E0,1.538201294E0,1.361333683E1
1.034847021E1,1.311048660E1,-4.419858856E0,1.895508270E0,1.396470418E1
1.035843921E1,1.341794724E1,-4.621489563E0,2.135010223E0,1.435122791E1
1.036840821E1,1.357616821E1,-4.928052063E0,2.288141785E0,1.462305144E1
1.037837721E1,1.343007202E1,-5.292993164E0,2.367327118E0,1.462828933E1
1.038834521E1,1.291080185E1,-5.821244659E0,2.376458130E0,1.436047517E1
1.039831421E1,1.232911148E1,-6.166277161E0,2.672692108E0,1.404183916E1
1.040828321E1,1.126677063E1,-5.933211823E0,2.916235657E0,1.306321375E1
1.041825221E1,1.003258713E1,-5.403164062E0,3.013982391E0,1.178690274E1
1.042822021E1,9.157656555E0,-4.781955872E0,3.032094727E0,1.076677175E1
1.043818921E1,8.445737000E0,-4.121229858E0,3.067870331E0,9.885688513E0
1.044815821E1,7.928712158E0,-3.482358398E0,3.021317139E0,9.171676714E0
1.045812721E1,7.306905212E0,-3.091970215E0,2.711760864E0,8.384795202E0
1.046809621E1,6.481222229E0,-2.991379395E0,2.123035126E0,7.447272683E0
1.047806421E1,5.606441345E0,-3.106789398E0,1.453926544E0,6.572535836E0
1.048803321E1,4.766088867E0,-3.239114227E0,9.032217407E-1,5.832947246E0
1.049800221E1,4.085154877E0,-3.367247772E0,3.873944092E-1,5.308193888E0
1.050797121E1,3.728296967E0,-3.432811432E0,-1.050814819E-1,5.069066454E0
1.051793921E1,3.720962219E0,-3.390898590E0,-4.291575623E-1,5.052517125E0
1.052790821E1,4.002526703E0,-3.273991699E0,-6.333329773E-1,5.209640325E0
1.053787721E1,4.510869598E0,-3.081342316E0,-6.021977234E-1,5.495930958E0
1.054784621E1,5.112169189E0,-2.987337799E0,-3.261717224E-1,5.929995695E0
1.055781521E1,5.729784851E0,-3.109932861E0,1.007405090E-1,6.520143058E0
1.056778321E1,6.294710083E0,-3.399580536E0,6.491999817E-1,7.183452058E0
1.057775221E1,6.759343872E0,-3.747756500E0,1.088536377E0,7.805082947E0
1.058772121E1,7.149881744E0,-4.054618378E0,1.431772614E0,8.343303420E0
1.059769021E1,7.374564514E0,-4.406237183E0,1.807491302E0,8.778732978E0
1.060765921E1,7.233108673E0,-4.831203461E0,2.040107574E0,8.934227827E0
1.061762721E1,6.827003174E0,-5.282065887E0,2.035616913E0,8.868592255E0
1.062759621E1,6.324348450E0,-5.737718353E0,1.936073914E0,8.755979523E0
1.063756521E1,6.145470428E0,-6.266718292E0,1.865121460E0,8.973140086E0
1.064753421E1,6.345604248E0,-6.797963562E0,1.878593445E0,9.487260679E0
1.065750221E1,6.811734924E0,-7.228318634E0,1.994602203E0,1.013048671E1
1.066747121E1,7.418722687E0,-7.592960358E0,2.285597076E0,1.085884189E1
1.067744021E1,8.182284851E0,-7.860304413E0,2.726729736E0,1.166915703E1
1.068740921E1,8.736133118E0,-7.970625000E0,3.229085083E0,1.225878767E1
1.069737821E1,9.160800018E0,-7.993677063E0,3.704197083E0,1.270984681E1
1.070734621E1,9.390422516E0,-7.928861847E0,4.081712036E0,1.295018372E1
1.071731521E1,9.329798584E0,-7.718100128E0,3.881877594E0,1.271547030E1
1.072728421E1,9.176966400E0,-7.486681366E0,3.394341431E0,1.232025422E1
1.073725321E1,9.149423676E0,-7.315437469E0,2.849175110E0,1.205592708E1
1.074722121E1,9.315428467E0,-7.246880035E0,2.353406067E0,1.203465820E1
1.075719021E1,9.540260925E0,-7.075037384E0,2.198328552E0,1.207912997E1
1.076715921E1,9.776170349E0,-6.681206360E0,2.295626221E0,1.206158882E1
1.077712821E1,9.930200043E0,-6.010600891E0,2.442321167E0,1.186175066E1
1.078709721E1,9.937983856E0,-5.169799347E0,2.736459503E0,1.153163297E1
1.079706521E1,9.933493195E0,-4.408033447E0,2.886597290E0,1.124444262E1
1.080703421E1,9.630672913E0,-3.931723938E0,2.638862457E0,1.073181760E1
1.081700321E1,9.166937256E0,-3.900438995E0,2.025887146E0,1.016613898E1
1.082697221E1,8.623716888E0,-4.367168427E0,1.391805725E0,9.766154628E0
1.083694021E1,8.303383026E0,-5.225184174E0,1.068777466E0,9.868688089E0
1.084690971E1,8.488847351E0,-6.068979492E0,1.092278595E0,1.049219300E1
1.085687871E1,9.297615509E0,-6.549031219E0,1.475332031E0,1.146787115E1
1.086684771E1,1.046279251E1,-6.404431915E0,1.969005432E0,1.242432122E1
1.087681671E1,1.160656403E1,-5.783373413E0,2.485581207E0,1.320370594E1
1.088678471E1,1.238509506E1,-4.887187042E0,3.110381927E0,1.367295332E1
1.089675371E1,1.268147873E1,-3.797004089E0,3.502416687E0,1.369321239E1
1.090672271E1,1.220172638E1,-2.696342926E0,3.645968170E0,1.301712241E1
1.091669171E1,1.118668716E1,-1.964215393E0,3.609593811E0,1.191760376E1
1.092665971E1,1.008617569E1,-1.714534607E0,3.341052246E0,1.076258329E1
1.093662871E1,8.884175262E0,-1.757495270E0,2.833008728E0,9.489114720E0
1.094659771E1,7.738906860E0,-1.800156555E0,2.221530304E0,8.250238779E0
1.095656671E1,6.969806213E0,-1.584155731E0,1.832339630E0,7.378700194E0
1.096653571E1,6.733896790E0,-1.230291595E0,1.619781647E0,7.034392366E0
1.097650371E1,6.900799713E0,-7.363188171E-1,1.369202728E0,7.073748525E0
1.098647271E1,7.096442871E0,-2.008822632E-1,1.116827545E0,7.186595778E0
1.099644171E1,7.065457306E0,2.643502808E-1,1.001417542E0,7.140966679E0
1.100641071E1,6.679559784E0,3.694317627E-1,8.655001831E-1,6.745523649E0
1.101637971E1,6.317612457E0,1.916015625E-2,6.358776855E-1,6.349561773E0
1.102634771E1,6.180946655E0,-6.523434448E-1,5.144801331E-1,6.236532958E0
1.103631671E1,6.075416107E0,-1.512155457E0,7.756869507E-1,6.308643693E0
1.104628571E1,6.153852997E0,-2.441722412E0,1.128503265E0,6.716057971E0
1.105625471E1,6.669830017E0,-3.358266449E0,1.359772339E0,7.590360124E0
1.106622271E1,7.948171692E0,-4.070036316E0,1.071471863E0,8.993702286E0
1.107619171E1,9.722282410E0,-4.297114105E0,2.751278687E-1,1.063313972E1
1.108616071E1,1.124581421E1,-3.922892303E0,-3.748205566E-1,1.191628766E1
1.109612971E1,1.223301132E1,-3.327879639E0,-1.050066376E0,1.272100579E1
1.110609871E1,1.216669922E1,-2.716850281E0,-2.032174072E0,1.263089770E1
1.111606671E1,1.152633087E1,-2.399061127E0,-2.712658997E0,1.208181760E1
1.112603571E1,1.066382446E1,-2.748434601E0,-2.896776123E0,1.138693799E1
1.113600471E1,1.002076172E1,-3.360960846E0,-2.709515533E0,1.091115015E1
1.114597371E1,9.773625641E0,-3.733087006E0,-1.899998932E0,1.063342338E1
1.115594171E1,9.739047546E0,-3.791166229E0,-6.288423157E-1,1.046983434E1
1.116591071E1,1.030487091E1,-3.626209259E0,5.255570984E-1,1.093690854E1
1.117587971E1,1.118219650E1,-3.350332947E0,1.410516815E0,1.175822296E1
1.118584871E1,1.208736420E1,-3.056344299E0,2.183808746E0,1.265759196E1
1.119581771E1,1.314177155E1,-2.936892700E0,2.864593048E0,1.376725795E1
1.120578571E1,1.398706375E1,-2.946323090E0,3.683240662E0,1.476092930E1
1.121575471E1,1.369457199E1,-3.059787140E0,4.291425934E0,1.467378397E1
1.122572371E1,1.286634430E1,-3.470682678E0,4.702770538E0,1.413168442E1
1.123569271E1,1.201970490E1,-4.040697327E0,5.161865845E0,1.369107007E1
1.124566071E1,1.135793106E1,-4.586761780E0,5.374423828E0,1.337630043E1
1.125562971E1,1.093251572E1,-4.794829102E0,5.394332428E0,1.309996597E1
1.126559871E1,1.092413315E1,-4.701872406E0,5.140310669E0,1.295635300E1
1.127556771E1,1.125883713E1,-4.671485596E0,4.737498322E0,1.307777051E1
1.128553671E1,1.158396103E1,-4.754862213E0,4.578079834E0,1.333250474E1
1.129550471E1,1.202823715E1,-4.804708557E0,4.559069366E0,1.373130827E1
1.130547371E1,1.235395981E1,-4.864584045E0,4.784799957E0,1.411307236E1
1.131544271E1,1.237356903E1,-4.882995758E0,4.971761169E0,1.420096008E1
1.132541171E1,1.223196350E1,-5.007536774E0,4.931644592E0,1.410735532E1
1.133537971E1,1.220112762E1,-5.278623047E0,4.807702332E0,1.413666786E1
1.134534871E1,1.189845703E1,-5.609584808E0,4.538112946E0,1.391528622E1
1.135531771E1,1.151255951E1,-6.015989685E0,3.887266388E0,1.355883470E1
1.136528671E1,1.119671631E1,-6.550378418E0,3.091670837E0,1.333537934E1
1.137525571E1,1.085871918E1,-7.032825165E0,2.575993195E0,1.319121499E1
1.138522371E1,1.076695999E1,-7.198680267E0,2.324665833E0,1.315874220E1
1.139519271E1,1.062670166E1,-6.837780762E0,2.472857666E0,1.287622068E1
1.140516171E1,1.015188904E1,-5.948629761E0,2.928959198E0,1.212542160E1
1.141513071E1,9.451495514E0,-5.021457825E0,3.349434814E0,1.121447813E1
1.142509971E1,8.755442963E0,-4.384831696E0,3.617527313E0,1.043891921E1
1.143506771E1,8.046217804E0,-3.962410126E0,3.639681244E0,9.679338537E0
1.144503671E1,7.362439728E0,-3.820954285E0,3.413800964E0,8.969907882E0
1.145500571E1,6.739135895E0,-4.036955109E0,2.754871216E0,8.324798771E0
1.146497471E1,5.926625519E0,-4.395609283E0,2.054178314E0,7.659368091E0
1.147494271E1,5.115462341E0,-4.700974274E0,1.426234131E0,7.092337970E0
1.148491171E1,4.255949707E0,-4.888234863E0,9.502239990E-1,6.550639178E0
1.149488071E1,3.562591553E0,-4.982838135E0,8.565188599E-1,6.185010833E0
1.150484971E1,3.104095001E0,-4.978048096E0,1.080752563E0,5.965265688E0
1.151481871E1,2.919828186E0,-4.765639801E0,1.417402496E0,5.765912693E0
1.152478671E1,3.029400330E0,-4.481380920E0,1.728605347E0,5.678742621E0
1.153475571E1,3.452270966E0,-4.360582123E0,1.912423096E0,5.881344520E0
1.154472471E1,3.678450623E0,-4.422104187E0,1.974244537E0,6.081418084E0
1.155469371E1,3.502416687E0,-4.667144623E0,1.706152039E0,6.079483231E0
1.156466171E1,3.215912476E0,-5.104984131E0,1.142424316E0,6.140691276E0
1.157463071E1,3.054697723E0,-5.622907104E0,5.831872559E-1,6.425602685E0
1.158459971E1,3.154689789E0,-5.914351044E0,1.896556091E-1,6.705787439E0
1.159456871E1,3.843257904E0,-5.927972717E0,-1.359173584E-1,7.066113881E0
1.160453771E1,4.942571869E0,-5.836512909E0,-8.951385498E-2,7.648654283E0
1.161450571E1,6.022276611E0,-6.029311981E0,2.787203979E-1,8.526318292E0
1.162447471E1,7.267537079E0,-6.660249939E0,7.685018921E-1,9.887700420E0
1.163444371E1,8.497978363E0,-7.599846039E0,1.425485687E0,1.148935618E1
1.164441271E1,9.621841278E0,-8.590635681E0,2.335593109E0,1.310854096E1
1.165438171E1,1.051248917E1,-9.311985626E0,3.039878540E0,1.436893755E1
1.166434971E1,1.129057114E1,-9.414971466E0,3.598067780E0,1.513488606E1
1.167431871E1,1.150911667E1,-8.849896545E0,3.794309692E0,1.500590622E1
1.168428771E1,1.072624466E1,-7.957901459E0,3.583847351E0,1.382839405E1
1.169425671E1,9.819879456E0,-7.279063110E0,3.411555634E0,1.269068572E1
1.170422471E1,9.065448303E0,-6.854845276E0,3.085982666E0,1.177686485E1
1.171419371E1,8.550668793E0,-6.591842194E0,2.618804169E0,1.110965596E1
1.172416271E1,8.788224792E0,-6.591842194E0,2.073039093E0,1.117956929E1
1.173413171E1,9.596543884E0,-6.971901855E0,1.757644958E0,1.199126289E1
1.174410071E1,1.069615723E1,-7.173532562E0,1.900447998E0,1.301841202E1
1.175406871E1,1.188423660E1,-6.610702972E0,2.426154785E0,1.381385900E1
1.176403771E1,1.283206558E1,-5.343438263E0,3.250640259E0,1.427518482E1
1.177400671E1,1.322454941E1,-3.908671875E0,3.596720581E0,1.425141473E1
1.178397571E1,1.262175293E1,-2.681224365E0,3.342100067E0,1.332918767E1
1.179394371E1,1.168649780E1,-2.032024384E0,2.576142883E0,1.213836340E1
1.180391271E1,1.104448288E1,-2.157164154E0,1.678010559E0,1.137759547E1
1.181388171E1,1.080992065E1,-2.865491180E0,1.205742645E0,1.124807715E1
1.182385071E1,1.106379272E1,-3.789519653E0,1.343007202E0,1.177164547E1
1.183381971E1,1.177705948E1,-4.537214813E0,1.927242279E0,1.276713402E1
1.184378771E1,1.229692841E1,-4.969366150E0,2.714754639E0,1.353805528E1
1.185375671E1,1.244392273E1,-4.690046997E0,3.347189484E0,1.371318457E1
1.186372571E1,1.236383926E1,-3.618874512E0,3.873944092E0,1.345244279E1
1.187369471E1,1.197584610E1,-2.215542755E0,4.014052734E0,1.282349948E1
1.188366271E1,1.121467896E1,-8.896000671E-1,3.570824432E0,1.180301654E1
1.189363171E1,9.997260590E0,-1.407073975E-2,3.038830719E0,1.044891906E1
1.190360071E1,8.752449188E0,3.989204407E-1,2.703078918E0,9.169031571E0
1.191356971E1,7.292235718E0,5.447172546E-1,2.262844391E0,7.654664159E0
1.192353871E1,6.022126923E0,4.513114929E-1,1.733245697E0,6.282820655E0
1.193350671E1,5.177583160E0,2.859054565E-1,1.129102020E0,5.306974721E0
1.194347571E1,4.754862213E0,2.570155334E-1,5.712121582E-1,4.795941511E0
1.195344471E1,5.029391327E0,3.656895447E-1,2.136058044E-1,5.047190644E0
1.196341371E1,5.644911346E0,5.189707947E-1,2.047741699E-1,5.672414588E0
1.197338271E1,6.269263000E0,6.047424316E-1,3.707789612E-1,6.309266916E0
1.198335071E1,7.066804504E0,5.225633240E-1,7.460485840E-1,7.125263983E0
1.199331971E1,7.722740479E0,1.962419128E-1,1.074016571E0,7.799534793E0
1.200328871E1,8.056396637E0,-1.941462708E-1,1.409768372E0,8.181116452E0
1.201325771E1,7.959398346E0,-5.291496277E-1,1.390608215E0,8.097271921E0
1.202322571E1,7.704777832E0,-8.601113892E-1,9.461824036E-1,7.810163518E0
1.203319471E1,7.628735962E0,-1.246607666E0,5.168751526E-1,7.747180324E0
1.204316371E1,7.755971375E0,-1.759141846E0,1.122665405E-1,7.953758594E0
1.205313271E1,8.152646484E0,-2.455942841E0,1.736389160E-2,8.514552334E0
1.206310171E1,8.969797211E0,-3.305725708E0,3.026705933E-1,9.564344930E0
1.207306971E1,9.730814667E0,-4.102818146E0,7.676037598E-1,1.058825228E1
1.208303871E1,1.021056702E1,-4.661306763E0,1.146914978E0,1.128268024E1
1.209300771E1,1.079944244E1,-4.849914551E0,1.862427063E0,1.198408373E1
1.210297671E1,1.120345230E1,-4.695136414E0,2.592309265E0,1.242101915E1
1.211294471E1,1.100750977E1,-4.268822937E0,3.062930603E0,1.219711705E1
1.212291371E1,1.096065720E1,-3.803590393E0,3.138822784E0,1.201896479E1
1.213288271E1,1.130030090E1,-3.596421204E0,2.894530792E0,1.220693878E1
1.214285171E1,1.175266022E1,-3.513343964E0,2.675236816E0,1.255489944E1
1.215282071E1,1.213736023E1,-3.146157532E0,2.406395874E0,1.276732398E1
1.216278871E1,1.250873795E1,-2.782713318E0,1.728755035E0,1.293060758E1
1.217275771E1,1.294014084E1,-2.867736511E0,1.221609650E0,1.331027752E1
1.218272671E1,1.315045349E1,-3.418141937E0,1.197809143E0,1.364011980E1
1.219269571E1,1.316811676E1,-4.173920288E0,1.429227905E0,1.388753405E1
1.220266471E1,1.320643707E1,-4.938230896E0,1.692081299E0,1.420067758E1
1.221263271E1,1.336854996E1,-5.642815704E0,2.192341003E0,1.467534859E1
1.222260171E1,1.372046814E1,-6.053561554E0,3.007695465E0,1.529519812E1
1.223257071E1,1.392853546E1,-6.039640503E0,3.684587860E0,1.562234122E1
1.224253971E1,1.386851028E1,-5.589825897E0,3.769012299E0,1.542034970E1
1.225250771E1,1.326810883E1,-4.965025177E0,3.093616791E0,1.450050522E1
1.226247671E1,1.245919098E1,-4.516108704E0,2.438878326E0,1.347496958E1
1.227244571E1,1.192315567E1,-4.512815552E0,2.055675201E0,1.291328563E1
1.228241471E1,1.167033142E1,-4.887187042E0,1.872755585E0,1.279016990E1
1.229238371E1,1.145867157E1,-5.409151611E0,1.826651459E0,1.280221586E1
1.230235171E1,1.117111954E1,-5.778283997E0,1.978435822E0,1.273171968E1
1.231232071E1,1.093281509E1,-5.911656647E0,2.293081512E0,1.263852654E1
1.232228971E1,1.072908875E1,-5.684878235E0,2.596949615E0,1.241673601E1
1.233225871E1,1.045411057E1,-5.122647400E0,3.007545776E0,1.202394593E1
1.234222671E1,1.001582199E1,-4.158801727E0,3.253634033E0,1.132247572E1
1.235219571E1,9.376052399E0,-3.063080292E0,3.298241272E0,1.040053917E1
1.236216471E1,8.685089264E0,-2.088457031E0,3.050356750E0,9.439126262E0
1.237213371E1,7.944878540E0,-1.303639069E0,2.522404633E0,8.437007465E0
1.238210271E1,7.170688477E0,-7.964936829E-1,1.712738342E0,7.415298244E0
1.239207071E1,6.479875031E0,-5.548960876E-1,8.946894836E-1,6.564842675E0
1.240203971E1,5.915698242E0,-5.101391602E-1,3.103047180E-1,5.945756190E0
1.241200871E1,5.240751801E0,-6.165678406E-1,-9.954299927E-2,5.277835176E0
1.242197771E1,4.717739410E0,-8.547225952E-1,-4.764591980E-1,4.818156206E0
1.243194671E1,4.412673798E0,-1.244512024E0,-7.578739929E-1,4.647028428E0
1.244191471E1,4.220473480E0,-1.773661652E0,-7.195536804E-1,4.634223727E0
1.245188371E1,4.134103088E0,-2.309397583E0,-5.351371765E-1,4.765553204E0
1.246185271E1,4.319866791E0,-2.814597015E0,-2.674937439E-1,5.162824649E0
1.247182171E1,4.839436340E0,-3.304378510E0,1.586700439E-1,5.862101808E0
1.248178971E1,5.242098999E0,-3.747756500E0,3.661386108E-1,6.454404557E0
1.249175871E1,5.346731415E0,-4.112547913E0,6.521937561E-1,6.776868292E0
1.250172771E1,5.651497650E0,-4.674030304E0,1.128353577E0,7.420186437E0
1.251169671E1,6.024971008E0,-5.341043243E0,1.360670471E0,8.165686910E0
1.252166571E1,6.200106812E0,-5.989195404E0,1.290017395E0,8.716417323E0
1.253163371E1,6.162235565E0,-6.779102783E0,1.249302063E0,9.246087678E0
1.254160271E1,6.150110779E0,-7.750582581E0,1.305884399E0,9.980016382E0
1.255157171E1,6.446494446E0,-8.784183197E0,1.379980316E0,1.098287352E1
1.256154071E1,6.997348938E0,-9.583221588E0,1.733545074E0,1.199192256E1
1.257150871E1,7.820337524E0,-9.768236847E0,2.532433777E0,1.276672828E1
1.258147771E1,8.916957092E0,-9.282047882E0,3.449726257E0,1.332550742E1
1.259144671E1,9.845326538E0,-8.327931976E0,4.209546204E0,1.356485108E1
1.260141571E1,9.716444550E0,-7.167844391E0,4.530329132E0,1.289616881E1
1.261138471E1,8.343349915E0,-5.969137115E0,4.361330566E0,1.114734453E1
1.262135271E1,6.743776245E0,-5.243446198E0,3.633544006E0,9.283043042E0
1.263132171E1,5.953120422E0,-5.539380798E0,2.312690735E0,8.454165886E0
1.264129071E1,6.221212921E0,-6.780749359E0,1.094972992E0,9.267201192E0
1.265125971E1,7.119195557E0,-7.986641693E0,7.074288940E-1,1.072239929E1
1.266122771E1,8.247998199E0,-8.270002441E0,9.044192505E-1,1.171496431E1
1.267119671E1,9.629325714E0,-7.652237091E0,1.077010345E0,1.234668366E1
1.268116571E1,1.129820526E1,-6.781048737E0,1.614841919E0,1.327553308E1
1.269113471E1,1.305106018E1,-6.067183228E0,2.353705444E0,1.458358027E1
1.270110371E1,1.445214661E1,-5.522016907E0,3.117117920E0,1.578206692E1
1.271107171E1,1.532812500E1,-5.192402344E0,3.527265015E0,1.656363658E1
1.272104071E1,1.520627838E1,-5.188211060E0,3.331621857E0,1.640878242E1
1.273100971E1,1.401415741E1,-5.424719238E0,2.995570679E0,1.532310773E1
1.274097871E1,1.265378632E1,-5.721851349E0,3.040028229E0,1.421617609E1
1.275094771E1,1.135134476E1,-5.835764465E0,3.550017700E0,1.324808667E1
1.276091571E1,1.020936951E1,-5.668562164E0,4.208049316E0,1.241255420E1
1.277088471E1,9.544003143E0,-5.100343781E0,4.581372986E0,1.175119063E1
1.278085371E1,9.046437836E0,-4.145479431E0,4.685406647E0,1.099891234E1
1.279082271E1,9.084309082E0,-2.979853363E0,4.464316406E0,1.055150788E1
1.280079071E1,9.269923096E0,-1.548529816E0,4.197122040E0,1.029297101E1
1.281075971E1,9.054670715E0,-3.023712158E-2,3.921545105E0,9.867446076E0
1.282072871E1,8.673413544E0,1.082997894E0,3.412753143E0,9.383382703E0
1.283069771E1,7.923023987E0,1.440155182E0,2.534230042E0,8.442196275E0
1.284066671E1,6.954238586E0,1.112037506E0,1.548380127E0,7.210793490E0
1.285063471E1,5.939199371E0,5.162763977E-1,1.059945831E0,6.055090062E0
1.286060371E1,5.206772461E0,-4.939727783E-2,9.177415466E-1,5.287264803E0
1.287057271E1,4.740492096E0,-3.538641357E-1,1.125359802E0,4.885071117E0
1.288054171E1,4.890330505E0,-3.315605164E-1,1.569186859E0,5.146611723E0
1.289051071E1,5.745502167E0,-8.711883545E-2,1.717678070E0,5.997399669E0
1.290047871E1,7.061116333E0,2.086660767E-1,1.494492188E0,7.220554847E0
1.291044771E1,8.161478119E0,5.222639465E-1,1.535506897E0,8.321073617E0
1.292041671E1,8.684490509E0,7.307803345E-1,1.670825500E0,8.873898419E0
1.293038571E1,8.603508911E0,7.063810730E-1,1.727707214E0,8.803653334E0
1.294035371E1,8.213420105E0,4.599934387E-1,1.780697021E0,8.416813273E0
1.295032271E1,7.914791107E0,-1.167572021E-2,1.853894806E0,8.129020885E0
1.296029171E1,7.813751221E0,-5.032534790E-1,1.890269165E0,8.054879870E0
1.297026071E1,8.027207336E0,-8.819659424E-1,1.830992432E0,8.280486389E0
1.298022971E1,8.580756226E0,-1.392254791E0,1.775906982E0,8.872519170E0
1.299019771E1,9.539213104E0,-2.098336487E0,1.768422546E0,9.926072786E0
1.300016671E1,1.098101486E1,-2.896476746E0,1.960473175E0,1.152457027E1
1.301013571E1,1.250424728E1,-3.615281982E0,2.166444855E0,1.319545176E1
1.302010471E1,1.353665039E1,-3.969295807E0,2.481838989E0,1.432325863E1
1.303007271E1,1.372675507E1,-3.784280548E0,2.994223480E0,1.455025629E1
1.304004171E1,1.336420898E1,-3.130589905E0,3.178041229E0,1.408909582E1
1.305001071E1,1.280991165E1,-2.389031982E0,2.952610016E0,1.336110835E1
1.305997971E1,1.253643036E1,-1.975142670E0,2.773881683E0,1.299067721E1
1.306994871E1,1.286873932E1,-2.158810730E0,2.724484406E0,1.332995614E1
1.307991671E1,1.347497864E1,-2.968327332E0,2.863545227E0,1.409205122E1
1.308988571E1,1.424258240E1,-4.009711761E0,2.944077759E0,1.508630291E1
1.309985471E1,1.504027359E1,-5.062921600E0,2.511627045E0,1.606708671E1
1.310982371E1,1.589858871E1,-6.210285645E0,2.013762360E0,1.718685573E1
1.311979171E1,1.684342392E1,-7.182513885E0,1.644480286E0,1.838460635E1
1.312976071E1,1.721195755E1,-7.285350037E0,2.029030609E0,1.880012694E1
1.313972971E1,1.702290070E1,-6.392905884E0,2.676284637E0,1.837963256E1
1.314969871E1,1.659883255E1,-4.728816376E0,3.131787415E0,1.754112422E1
1.315966771E1,1.623344238E1,-3.021616516E0,2.827021179E0,1.675251822E1
1.316963571E1,1.605037308E1,-2.104324036E0,2.199526062E0,1.633647975E1
1.317960471E1,1.612072678E1,-2.438279572E0,1.725611572E0,1.639514484E1
1.318957371E1,1.595127914E1,-3.965254211E0,1.702110443E0,1.652464000E1
1.319954271E1,1.527962585E1,-5.728287964E0,1.815125427E0,1.641873715E1
1.320951171E1,1.407927200E1,-6.999294891E0,2.186353455E0,1.587438725E1
1.321947971E1,1.245829285E1,-7.359445953E0,2.653681641E0,1.471096637E1
1.322944871E1,1.067041077E1,-6.786886597E0,2.913541260E0,1.297721920E1
1.323941771E1,9.347761230E0,-5.615722046E0,2.825224915E0,1.126493985E1
1.324938671E1,8.621321869E0,-4.318669281E0,2.681374054E0,1.000838958E1
1.325935471E1,8.693471832E0,-3.321443024E0,2.362986145E0,9.601673801E0
1.326932371E1,8.736282806E0,-2.632575531E0,1.772314453E0,9.294847482E0
1.327929271E1,8.096662903E0,-2.271975403E0,9.166937256E-1,8.459205032E0
1.328926171E1,7.242838440E0,-2.216440887E0,4.790039062E-3,7.574387224E0
1.329923071E1,6.304739227E0,-2.512974243E0,-7.955955505E-1,6.833575093E0
1.330919871E1,5.581293640E0,-3.186423798E0,-1.220262451E0,6.541649315E0
1.331916771E1,5.115612030E0,-4.036206665E0,-1.140029297E0,6.615143043E0
1.332913671E1,4.880451050E0,-4.698878632E0,-9.015751648E-1,6.834551969E0
1.333910571E1,4.724475403E0,-5.007686462E0,-5.721102905E-1,6.908321194E0
1.334907471E1,4.665498047E0,-4.989723816E0,-2.903961182E-1,6.837290815E0
1.335904271E1,4.671485596E0,-4.890180817E0,-6.092330933E-2,6.763161815E0
1.336901171E1,4.646786957E0,-4.807103577E0,6.616241455E-2,6.686198567E0
1.337898071E1,4.543052673E0,-4.875062256E0,1.901046753E-2,6.663776781E0
1.338894971E1,4.275109863E0,-5.121599579E0,-1.811233521E-1,6.673840892E0
1.339891771E1,3.931723938E0,-5.573809204E0,-4.120930481E-1,6.833419557E0
1.340888671E1,3.843108215E0,-6.275998993E0,-5.541476440E-1,7.380021933E0
1.341885571E1,3.978426819E0,-7.160809021E0,-5.536985779E-1,8.210459665E0
1.342882471E1,4.325704651E0,-8.020471344E0,-8.592132568E-2,9.113016174E0
1.343879371E1,4.745282135E0,-8.684340820E0,7.388635254E-1,9.923779388E0
1.344876171E1,5.210814056E0,-8.991502075E0,1.684746552E0,1.052796579E1
1.345873071E1,5.494623871E0,-9.010362854E0,2.534978485E0,1.085373881E1
1.346869971E1,5.472919006E0,-8.848249969E0,3.095712433E0,1.085485170E1
1.347866871E1,5.439538422E0,-8.625513153E0,3.387455750E0,1.074536699E1
1.348863771E1,5.345533905E0,-8.364156647E0,3.524121552E0,1.053343637E1
1.349860571E1,5.146148529E0,-7.985743561E0,3.589685211E0,1.015582517E1
1.350857471E1,5.148992615E0,-7.308851166E0,3.583398285E0,9.631831268E0
1.351854371E1,5.875731354E0,-6.509962463E0,3.655548248E0,9.500887496E0
1.352851271E1,7.370223541E0,-5.917943573E0,3.387755127E0,1.004087327E1
1.353848071E1,8.964707794E0,-5.747897186E0,2.805765381E0,1.101256679E1
1.354844971E1,1.047476761E1,-5.887556763E0,2.718796234E0,1.231973758E1
1.355841871E1,1.126901596E1,-6.033054199E0,2.202519836E0,1.297071923E1
1.356838771E1,1.121752304E1,-6.283633118E0,1.447489929E0,1.293878261E1
1.357835671E1,1.087174210E1,-6.897207184E0,8.463400269E-1,1.290281111E1
1.358832471E1,1.060095520E1,-7.899522858E0,6.683601379E-1,1.323742489E1
1.359829371E1,1.039887543E1,-8.843908997E0,1.105002136E0,1.369570612E1
1.360826271E1,1.014994308E1,-9.227112122E0,2.223775635E0,1.389626284E1
1.361823171E1,9.992620239E0,-9.031019897E0,3.326981506E0,1.387373726E1
1.362819971E1,1.009994705E1,-8.527616730E0,3.932771759E0,1.379115192E1
1.363816871E1,1.064960403E1,-7.716752930E0,3.937262421E0,1.372823285E1
1.364813771E1,1.122994720E1,-6.608607330E0,3.996090088E0,1.362916509E1
1.365810671E1,1.171404053E1,-5.410349121E0,4.287983093E0,1.359696371E1
1.366807571E1,1.206101898E1,-4.350852356E0,4.518952789E0,1.359481627E1
1.367804371E1,1.220352264E1,-3.441044312E0,4.700225830E0,1.352253208E1
1.368801271E1,1.183828217E1,-2.832859039E0,4.707111511E0,1.305093536E1
1.369798171E1,1.082473984E1,-2.467319183E0,4.574487305E0,1.200785537E1
1.370795071E1,9.567055206E0,-2.103575592E0,4.367168427E0,1.072500516E1
1.371791971E1,8.448132019E0,-1.599423981E0,4.096381531E0,9.524150005E0
1.372788771E1,7.934400330E0,-8.536747742E-1,3.828139343E0,8.850882444E0
1.373785671E1,7.878416748E0,-5.688171387E-3,3.527714081E0,8.632163660E0
1.374782571E1,7.863298187E0,6.990463257E-1,3.331172791E0,8.568362522E0
1.375779471E1,7.951614532E0,1.134939880E0,3.259471893E0,8.668357355E0
1.376776271E1,7.875123596E0,1.279539185E0,2.935695190E0,8.501358623E0
1.377773171E1,7.587272186E0,1.345402222E0,2.282154236E0,8.036481464E0
1.378770071E1,7.607779541E0,1.426383820E0,1.487007751E0,7.881882542E0
1.379766971E1,7.849077759E0,1.602417755E0,9.786648560E-1,8.070535870E0
1.380763871E1,7.870333557E0,1.767225037E0,7.560777283E-1,8.101659593E0
1.381760671E1,7.797584839E0,1.756148071E0,6.622229004E-1,8.020282073E0
1.382757571E1,7.829917603E0,1.328337708E0,6.990463257E-1,7.972500015E0
1.383754471E1,8.144114227E0,5.676196289E-1,9.244775391E-1,8.216048157E0
1.384751308E1,8.560847626E0,-2.395019531E-1,1.137185211E0,8.639367075E0
1.385748108E1,9.063053284E0,-1.036893768E0,1.392254791E0,9.227808890E0
1.386745008E1,9.887688446E0,-1.874252472E0,1.610500946E0,1.019180644E1
1.387741908E1,1.094508957E1,-2.665357361E0,2.023492126E0,1.144524512E1
1.388738808E1,1.189142166E1,-3.437601471E0,2.598446503E0,1.264811991E1
1.389735708E1,1.265184036E1,-4.205354919E0,3.215762787E0,1.371478053E1
1.390732508E1,1.310824127E1,-4.762646027E0,3.631448364E0,1.441166901E1
1.391729408E1,1.316587143E1,-4.762795715E0,3.869154053E0,1.452565822E1
1.392726308E1,1.295945068E1,-4.014801178E0,4.005520477E0,1.414603071E1
1.393723208E1,1.258612701E1,-2.894081726E0,3.916455688E0,1.349536689E1
1.394720108E1,1.223405914E1,-1.855092316E0,3.722159729E0,1.292161150E1
1.395716908E1,1.206715622E1,-1.252595215E0,3.614084473E0,1.265886490E1
1.396713808E1,1.218840408E1,-1.472487946E0,3.579207001E0,1.278812487E1
1.397710708E1,1.239392670E1,-2.283202057E0,3.682492218E0,1.312947750E1
1.398707608E1,1.223166412E1,-2.794389038E0,3.635789337E0,1.306296985E1
1.399704408E1,1.221385117E1,-2.920426941E0,3.235521698E0,1.296825565E1
1.400701308E1,1.261456787E1,-3.197650452E0,2.638114014E0,1.327825051E1
1.401698208E1,1.348964813E1,-3.863465881E0,1.990410919E0,1.417246312E1
1.402695108E1,1.428838715E1,-4.429588623E0,1.917811890E0,1.508168641E1
1.403692008E1,1.487426880E1,-4.552183685E0,2.171534271E0,1.570610740E1
1.404688808E1,1.471919128E1,-4.123924255E0,2.337838440E0,1.546372633E1
1.405685708E1,1.428464493E1,-3.274740143E0,2.603236542E0,1.488461770E1
1.406682608E1,1.419108948E1,-2.704725494E0,2.611619110E0,1.468070553E1
1.407679508E1,1.444556030E1,-2.770738220E0,2.325713654E0,1.489161330E1
1.408676408E1,1.485900055E1,-3.395538940E0,1.980082397E0,1.537011088E1
1.409673208E1,1.510329254E1,-4.394262085E0,1.801354065E0,1.583236752E1
1.410670108E1,1.490076370E1,-5.552403717E0,1.862876129E0,1.601037955E1
1.411667008E1,1.428569275E1,-6.378835144E0,2.162702637E0,1.579391775E1
1.412663908E1,1.322140594E1,-6.444698181E0,2.709515533E0,1.495597487E1
1.413660708E1,1.217957245E1,-5.551056519E0,3.082090759E0,1.373519192E1
1.414657608E1,1.127290787E1,-4.011358337E0,3.086880798E0,1.235711457E1
1.415654508E1,1.042327469E1,-2.679278412E0,2.960094452E0,1.116178065E1
1.416651408E1,9.779164124E0,-1.754351807E0,2.595452728E0,1.026869885E1
1.417648308E1,9.190737762E0,-1.416504364E0,2.091750183E0,9.531608682E0
1.418645108E1,8.342451782E0,-1.659149780E0,1.514101410E0,8.639547605E0
1.419642008E1,7.352560272E0,-2.280208282E0,7.812254333E-1,7.737558113E0
1.420638908E1,6.447542267E0,-3.041375427E0,5.254074097E-2,7.129062091E0
1.421635808E1,5.599555664E0,-4.000730438E0,-8.704399109E-1,6.936752361E0
1.422632708E1,4.825964355E0,-4.921765137E0,-1.695075073E0,7.098378936E0
1.423629508E1,4.354145508E0,-5.718857574E0,-2.340981903E0,7.559372416E0
1.424626408E1,3.882027283E0,-6.274651794E0,-2.616858215E0,7.828750723E0
1.425623308E1,3.505111084E0,-6.468199310E0,-2.418071594E0,7.744060709E0
1.426620208E1,3.514541473E0,-6.288123779E0,-1.772464142E0,7.418499280E0
1.427617008E1,3.928430786E0,-5.904471588E0,-9.629475403E-1,7.156998054E0
1.428613908E1,4.461322632E0,-5.504353638E0,-1.411564636E-1,7.086694133E0
1.429610808E1,4.976850586E0,-5.249134369E0,6.478527832E-1,7.262380230E0
1.430607708E1,5.498815155E0,-5.347180481E0,1.098864899E0,7.748342485E0
1.431604608E1,5.733826447E0,-5.666167145E0,1.101409607E0,8.136050575E0
1.432601408E1,5.900280304E0,-6.234834595E0,9.916877747E-1,8.641175541E0
1.433598308E1,5.868995361E0,-6.905140686E0,1.079704742E0,9.126436149E0
1.434595208E1,5.707032166E0,-7.435338135E0,1.319356384E0,9.465472550E0
1.435592108E1,5.739514618E0,-7.787106628E0,1.458267517E0,9.783026211E0
1.436589008E1,6.174210663E0,-8.063581696E0,1.620979156E0,1.028444459E1
1.437585808E1,6.981032867E0,-8.234825592E0,1.969454498E0,1.097387459E1
1.438582708E1,7.766299896E0,-8.320746918E0,2.259401550E0,1.160410008E1
1.439579608E1,8.064180450E0,-8.340505829E0,2.578238525E0,1.188454281E1
1.440576508E1,7.863597565E0,-8.388555908E0,2.721640320E0,1.181572524E1
1.441573408E1,7.585326233E0,-8.518336029E0,2.819985809E0,1.174953372E1
1.442570208E1,7.448660431E0,-8.658294983E0,2.935695190E0,1.179266384E1
1.443567108E1,7.938741302E0,-8.892108765E0,2.748434601E0,1.223303333E1
1.444564008E1,9.029972076E0,-9.172775116E0,2.018702087E0,1.302901981E1
1.445560908E1,9.896220703E0,-9.061855774E0,1.444346466E0,1.349587163E1
1.446557708E1,9.768985291E0,-8.646768951E0,1.276246033E0,1.310833669E1
1.447554608E1,9.543254700E0,-8.190218353E0,1.434467010E0,1.265745166E1
1.448551508E1,9.790839844E0,-7.897277527E0,1.715432739E0,1.269528443E1
1.449548408E1,1.019320312E1,-7.541617126E0,2.342029724E0,1.289428098E1
1.450545308E1,1.090512268E1,-7.156018982E0,2.892584839E0,1.336029024E1
1.451542108E1,1.148935776E1,-6.929839325E0,3.278632050E0,1.381222078E1
1.452539008E1,1.178514267E1,-7.068750458E0,3.288661194E0,1.413053832E1
1.453535908E1,1.172496780E1,-7.404951324E0,2.831062775E0,1.415355399E1
1.454532808E1,1.156480087E1,-7.701334991E0,2.531086578E0,1.412308674E1
1.455529608E1,1.142319534E1,-7.881260834E0,2.424059143E0,1.408828332E1
1.456526508E1,1.087802902E1,-7.804021454E0,2.366428986E0,1.359537614E1
1.457523408E1,9.896370392E0,-7.259453888E0,2.516267395E0,1.252874372E1
1.458520308E1,8.928483124E0,-6.617139587E0,2.912493439E0,1.148855801E1
1.459517208E1,8.236023102E0,-5.751489716E0,3.234024811E0,1.055322827E1
1.460514008E1,7.987090759E0,-4.448299713E0,3.494183807E0,9.787252404E0
1.461510908E1,8.032296753E0,-2.962788849E0,3.874243469E0,9.397109734E0
1.462507808E1,8.390352173E0,-1.402283936E0,4.196074219E0,9.485328074E0
1.463504708E1,8.717571716E0,1.083746338E-1,4.347110138E0,9.741928364E0
1.464501608E1,9.132209473E0,1.235081635E0,4.140090637E0,1.010262476E1
1.465498408E1,8.650960236E0,1.819466400E0,3.149899750E0,9.384638481E0
1.466495308E1,7.957452393E0,1.738933868E0,2.022444305E0,8.392569365E0
1.467492208E1,7.316185913E0,1.147214355E0,1.513502655E0,7.558661745E0
1.468489108E1,6.614445190E0,3.010240173E-1,1.535057831E0,6.796903941E0
1.469486008E1,6.472390594E0,-4.857398987E-1,2.010768585E0,6.794922631E0
1.470482808E1,6.967261505E0,-1.001417542E0,2.403851166E0,7.438015219E0
1.471479708E1,7.631879425E0,-1.264720001E0,2.794089661E0,8.225085852E0
1.472476608E1,8.450826416E0,-1.256337433E0,3.319796448E0,9.166018728E0
1.473473508E1,9.089548187E0,-1.040486298E0,3.618126068E0,9.838360342E0
1.474470308E1,9.194030914E0,-6.924600220E-1,3.610192566E0,9.901676408E0
1.475467208E1,8.949289856E0,-3.999682617E-1,3.528911591E0,9.628238704E0
1.476464108E1,9.123976593E0,-4.824467468E-1,3.165018311E0,9.669386984E0
1.477461008E1,9.729018402E0,-1.078357544E0,2.575244751E0,1.012168660E1
1.478457908E1,1.084958817E1,-1.953437805E0,2.028581543E0,1.120913135E1
1.479454708E1,1.196746353E1,-2.915636902E0,1.926942902E0,1.246732653E1
1.480451608E1,1.312859894E1,-3.679498444E0,2.277214508E0,1.382333262E1
1.481448508E1,1.417207901E1,-3.755540314E0,2.921774139E0,1.494953747E1
1.482445408E1,1.464285004E1,-3.272045746E0,3.680097198E0,1.544870402E1
1.483442308E1,1.476499603E1,-2.450554047E0,4.304448853E0,1.557365092E1
1.484439162E1,1.509056900E1,-1.644629974E0,4.762496338E0,1.590947679E1
1.485436063E1,1.558439209E1,-1.261576538E0,5.317691803E0,1.651492350E1
1.486432962E1,1.613839005E1,-1.284179535E0,5.989195404E0,1.726172679E1
1.487429863E1,1.687919952E1,-1.648671570E0,6.266568604E0,1.808024824E1
1.488426663E1,1.697934128E1,-2.319576416E0,5.828579407E0,1.810112712E1
1.489423562E1,1.608659775E1,-3.005599823E0,4.741539917E0,1.703802976E1
1.490420463E1,1.469149887E1,-3.531156921E0,3.346590729E0,1.547607437E1
1.491417362E1,1.350850891E1,-4.101470947E0,2.163151703E0,1.428219529E1
1.492414263E1,1.278491364E1,-4.623435516E0,1.596579895E0,1.368865370E1
1.493411063E1,1.218885315E1,-4.898563385E0,1.201401672E0,1.319118760E1
1.494407962E1,1.180026123E1,-4.873864746E0,1.047222290E0,1.281005063E1
1.495404863E1,1.177915512E1,-4.616100769E0,1.297202454E0,1.271768909E1
1.496401762E1,1.196057785E1,-4.320615234E0,1.504521332E0,1.280573008E1
1.497398663E1,1.209679459E1,-4.203109589E0,1.649569702E0,1.291199635E1
1.498395463E1,1.214873657E1,-4.612208862E0,1.780397644E0,1.311617653E1
1.499392362E1,1.213346832E1,-5.371130676E0,1.883682861E0,1.340217741E1
1.500389262E1,1.186447769E1,-6.262976074E0,2.087558899E0,1.357750354E1
1.501386162E1,1.099897751E1,-7.083120575E0,2.134112091E0,1.325528339E1
1.502382962E1,9.717492371E0,-7.435338135E0,2.307451630E0,1.245143543E1
1.503379862E1,8.883277130E0,-7.283703461E0,2.624941406E0,1.178368644E1
1.504376763E1,7.934100952E0,-6.628964996E0,2.383194122E0,1.061003059E1
1.505373662E1,7.118147736E0,-5.688321075E0,2.104473724E0,9.351675438E0
1.506370563E1,6.873855743E0,-4.716242523E0,1.982477417E0,8.568725286E0
1.507367363E1,6.931485901E0,-4.065695343E0,1.908830566E0,8.259479980E0
1.508364262E1,6.814429321E0,-3.806135101E0,1.930086365E0,8.040419439E0
1.509361163E1,6.291416931E0,-3.725452881E0,1.926643524E0,7.561275120E0
1.510358062E1,5.623505859E0,-3.897894287E0,1.627415771E0,7.033198427E0
1.511354963E1,5.087470551E0,-4.388274536E0,1.244512024E0,6.832870567E0
1.512351763E1,4.876559143E0,-5.107079773E0,8.533753967E-1,7.112759131E0
1.513348662E1,5.007686462E0,-5.828729095E0,4.318519592E-1,7.696590329E0
1.514345563E1,5.230123901E0,-6.284680939E0,1.960922241E-1,8.178622298E0
1.515342462E1,5.551206207E0,-6.489455109E0,1.692979431E-1,8.541520928E0
1.516339262E1,6.038742371E0,-6.349346466E0,2.381547546E-1,8.765690369E0
1.517336163E1,6.744824066E0,-5.899681549E0,3.890409851E-1,8.969406165E0
1.518333062E1,7.445067902E0,-5.277275848E0,6.731501770E-1,9.150508598E0
1.519329963E1,7.819888458E0,-4.844525757E0,1.084195404E0,9.262589540E0
1.520326862E1,7.698191528E0,-4.860692139E0,1.236129456E0,9.187845063E0
1.521323662E1,7.149582367E0,-5.873935089E0,1.001866608E0,9.307168106E0
1.522320563E1,6.492149506E0,-7.326514435E0,6.750961304E-1,9.812317451E0
1.523317462E1,5.779481506E0,-8.452622681E0,3.656895447E-1,1.024611953E1
1.524314363E1,5.133724365E0,-9.135352936E0,4.287084961E-1,1.048778290E1
1.525311262E1,4.963827667E0,-9.429491272E0,6.018983459E-1,1.067319879E1
1.526308062E1,5.485343170E0,-9.226663055E0,8.901988220E-1,1.077092172E1
1.527304963E1,6.680457916E0,-8.535101166E0,1.198108521E0,1.090467486E1
1.528301862E1,7.733218689E0,-7.648195496E0,1.556762695E0,1.098731431E1
1.529298763E1,8.297994232E0,-6.832691345E0,1.976340179E0,1.092924059E1
1.530295563E1,8.443491669E0,-5.992488556E0,2.261197815E0,1.059790008E1
1.531292462E1,8.250243530E0,-5.170547791E0,2.352208557E0,1.001668447E1
1.532289363E1,8.093070374E0,-4.558769989E0,1.992207184E0,9.499950597E0
1.533286262E1,8.379424896E0,-4.513713684E0,1.481469269E0,9.632399701E0
1.534283163E1,9.074579315E0,-5.131179657E0,9.961784363E-1,1.047231426E1
1.535279963E1,9.736802216E0,-5.810616760E0,6.322851562E-1,1.135642413E1
1.536276862E1,1.033885025E1,-6.170318756E0,5.592370605E-1,1.205310765E1
1.537273763E1,1.106484055E1,-6.241121521E0,4.905299377E-1,1.271310008E1
1.538270662E1,1.151061356E1,-5.915548553E0,7.840695190E-1,1.296544269E1
1.539267563E1,1.155941208E1,-5.130730591E0,1.377435608E0,1.272170322E1
1.540264363E1,1.172406967E1,-4.431235199E0,2.138602753E0,1.271468744E1
1.541261262E1,1.237416779E1,-4.206103363E0,3.018023987E0,1.341341875E1
1.542258163E1,1.319116882E1,-4.398902435E0,3.754642181E0,1.440328488E1
1.543255062E1,1.378094238E1,-4.731361084E0,4.209695892E0,1.516646598E1
1.544251862E1,1.374082581E1,-4.835993500E0,4.431983643E0,1.522628011E1
1.545248763E1,1.295540909E1,-4.478985901E0,4.599485321E0,1.445887978E1
1.546245662E1,1.172317154E1,-3.675756226E0,4.442611542E0,1.306448361E1
1.547242563E1,1.044827271E1,-2.799179077E0,3.940106506E0,1.151200440E1
1.548239462E1,9.454489288E0,-2.164947968E0,3.276386719E0,1.023763046E1
1.549236262E1,8.746311951E0,-1.755699005E0,2.084565125E0,9.161106019E0
1.550233163E1,8.183632050E0,-1.224453735E0,1.066981201E0,8.343234946E0
1.551230062E1,7.466623077E0,-7.086264038E-1,3.974235535E-1,7.510696176E0
1.552226962E1,6.783443756E0,-4.147874451E-1,5.493576050E-2,6.796335465E0
1.553223862E1,6.127507782E0,-4.147874451E-1,-8.577163696E-2,6.142129681E0
1.554220662E1,5.405259705E0,-7.385641479E-1,-9.729766846E-2,5.456351923E0
1.555217562E1,4.818030853E0,-1.127605133E0,-8.936416626E-2,4.949030268E0
1.556214463E1,4.315226440E0,-1.415007477E0,-1.556762695E-2,4.541328852E0
1.557211362E1,4.038901062E0,-1.630708923E0,-6.361770630E-2,4.356142857E0
1.558208162E1,4.041745148E0,-1.771865387E0,-1.257385254E-1,4.414863641E0
1.559205063E1,4.320465546E0,-1.902393951E0,-8.307723999E-2,4.721485688E0
1.560201962E1,4.897964630E0,-1.870659943E0,2.883004761E-1,5.250956418E0
1.561198863E1,5.571863251E0,-1.689835968E0,8.355624390E-1,5.882122939E0
1.562195762E1,6.258335724E0,-1.417103119E0,1.591191101E0,6.611114611E0
1.563192562E1,6.797364807E0,-1.119372253E0,2.499502258E0,7.328347297E0
1.564189463E1,6.903643799E0,-8.620573425E-1,3.258124695E0,7.682370538E0
1.565186362E1,6.832541656E0,-9.054670715E-1,3.668870544E0,7.807951535E0
1.566183263E1,6.553970947E0,-1.152902527E0,3.876189423E0,7.701205351E0
1.567180162E1,6.077811127E0,-1.211580505E0,4.133055267E0,7.449151714E0
1.568176962E1,6.334976349E0,-1.043629761E0,4.251608734E0,7.700471755E0
1.569173863E1,7.457492065E0,-6.081852722E-1,4.370012512E0,8.664934310E0
1.570170762E1,9.207203522E0,6.346801758E-2,4.713697815E0,1.034386639E1
1.571167663E1,1.127350662E1,2.703378296E-1,5.059778137E0,1.235987010E1
1.572164562E1,1.340432556E1,-5.938151550E-1,5.156177673E0,1.437409922E1
1.573161362E1,1.539683212E1,-2.616109772E0,5.135670319E0,1.644024268E1
1.574158263E1,1.628179184E1,-4.916825409E0,5.328469391E0,1.782314517E1
1.575155162E1,1.615111359E1,-6.671476593E0,5.373525696E0,1.828228236E1
1.576152063E1,1.503772888E1,-7.456893311E0,5.199886780E0,1.757206221E1
1.577148863E1,1.371762405E1,-6.720724182E0,5.012775879E0,1.607697936E1
1.578145762E1,1.318278625E1,-5.239703979E0,4.913532257E0,1.501276625E1
1.579142663E1,1.291933411E1,-4.292024689E0,4.658911743E0,1.438875006E1
1.580139562E1,1.278341675E1,-4.282444611E0,4.186344452E0,1.411667650E1
1.581136463E1,1.283146683E1,-5.080135803E0,4.104315033E0,1.439790688E1
1.582133263E1,1.235695358E1,-5.834267578E0,4.298910370E0,1.432527872E1
1.583130162E1,1.138831787E1,-5.966891785E0,4.303700409E0,1.355800202E1
1.584127063E1,1.065828598E1,-5.789810028E0,4.267924805E0,1.285831024E1
1.585123908E1,1.052221893E1,-5.227279816E0,4.275409241E0,1.250282647E1
1.586120708E1,1.051248917E1,-4.415667572E0,4.319567413E0,1.219299845E1
1.587117608E1,1.065783691E1,-3.610791321E0,4.383334808E0,1.207646164E1
1.588114508E1,1.035561539E1,-3.147504730E0,4.168980560E0,1.159853245E1
1.589111408E1,9.096284180E0,-3.171903992E0,3.655847626E0,1.030381399E1
1.590108308E1,7.626790009E0,-3.290008392E0,2.979853363E0,8.824489057E0
1.591105108E1,6.243815918E0,-3.309916992E0,2.245330811E0,7.415004933E0
1.592102008E1,5.043611755E0,-3.069217529E0,1.899250488E0,6.202037423E0
1.593098908E1,4.467310181E0,-2.709665222E0,1.660646667E0,5.482416732E0
1.594095808E1,4.856650543E0,-2.338586884E0,1.719474335E0,5.657970935E0
1.595092608E1,6.321204987E0,-2.319277039E0,2.018552399E0,7.029312360E0
1.596089508E1,8.676706696E0,-2.455643463E0,2.284848633E0,9.302470488E0
1.597086408E1,1.059017761E1,-2.195035400E0,2.412533112E0,1.108108110E1
1.598083308E1,1.141795624E1,-1.785337372E0,2.262095947E0,1.177600239E1
1.599080208E1,1.140732834E1,-1.504820709E0,1.436412964E0,1.159546926E1
1.600077008E1,1.065229843E1,-1.472038879E0,7.165599060E-1,1.077737530E1
1.601073908E1,9.788295135E0,-1.884730682E0,3.255729675E-1,9.973411110E0
1.602070808E1,9.182355194E0,-2.688858490E0,3.544628906E-1,9.574510475E0
1.603067708E1,9.083261261E0,-3.505111084E0,6.849755859E-1,9.760155245E0
1.604064608E1,1.021850052E1,-4.067192230E0,1.015188904E0,1.104492707E1
1.605061408E1,1.266770737E1,-4.104315033E0,7.870632935E-1,1.333925337E1
1.606058308E1,1.639600433E1,-4.061953125E0,6.840774536E-1,1.690551340E1
1.607055208E1,2.028701294E1,-4.469555511E0,6.453080750E-1,2.078355703E1
1.608052108E1,2.193792984E1,-5.168901215E0,1.122515717E0,2.256657588E1
1.609048908E1,2.032084259E1,-5.574258270E0,2.026635590E0,2.116875647E1
1.610045808E1,1.710313385E1,-5.774092712E0,3.575913849E0,1.840229589E1
1.611042708E1,1.478355743E1,-6.054309998E0,5.063819733E0,1.675859512E1
1.612039608E1,1.296828232E1,-5.935606842E0,5.884113922E0,1.542823942E1
1.613036508E1,1.213990494E1,-4.966222687E0,6.179749146E0,1.449930892E1
1.614033308E1,1.280272659E1,-3.386258240E0,5.762716370E0,1.444248777E1
1.615030208E1,1.378468460E1,-1.713337097E0,5.857918396E0,1.507541911E1
1.616027108E1,1.476634323E1,-3.056643677E-1,6.289620667E0,1.605296394E1
1.617024008E1,1.523142609E1,8.071215820E-1,6.555467834E0,1.660186569E1
1.618020908E1,1.436203400E1,1.648521881E0,6.093079376E0,1.568793362E1
1.619017708E1,1.254810608E1,2.163002014E0,4.932093658E0,1.365500244E1
1.620014608E1,1.039543259E1,2.327659607E0,4.361629944E0,1.151116127E1
1.621011508E1,8.693771210E0,2.254761200E0,4.213887177E0,9.920808992E0
1.622008408E1,8.003556519E0,2.414628754E0,5.112618256E0,9.799296627E0
1.623005208E1,8.478967896E0,3.361858978E0,7.269333344E0,1.166354147E1
1.624002108E1,9.192833405E0,4.690196686E0,8.932225342E0,1.364883806E1
1.624999008E1,9.413773956E0,5.918392639E0,9.916129303E0,1.489886344E1
1.625995908E1,9.072333984E0,6.911876678E0,9.544003143E0,1.487176113E1
1.626992808E1,7.963439941E0,7.207960968E0,8.062084808E0,1.343012615E1
1.627989608E1,6.594087524E0,6.774163055E0,7.018005981E0,1.177385592E1
1.628986508E1,4.568200378E0,5.726791077E0,7.336543579E0,1.036771250E1
1.629983408E1,2.166744232E0,4.159849548E0,9.507479095E0,1.060147573E1
1.630980308E1,7.095245361E-1,3.044668579E0,1.295600784E1,1.332784945E1
1.631977108E1,1.829345856E0,3.343746643E0,1.596684677E1,1.641546051E1
1.632974008E1,4.694088593E0,4.920867004E0,1.713576599E1,1.843593979E1
1.633970908E1,7.037764893E0,6.231840820E0,1.660990952E1,1.908546748E1
1.634967808E1,7.332501984E0,6.498137054E0,1.429452438E1,1.732988165E1
1.635964708E1,5.343138885E0,5.849984894E0,1.196252380E1,1.434829022E1
1.636961508E1,2.590513000E0,4.428540802E0,1.085542603E1,1.200678997E1
1.637958408E1,-2.140548706E-2,2.644101562E0,1.049183212E1,1.081990169E1
1.638955308E1,-1.841021576E0,1.402733002E0,1.082159637E1,1.106634395E1
1.639952208E1,-6.939569092E-1,8.322692871E-1,1.429706909E1,1.433807633E1
1.640949108E1,5.682932281E0,1.416354675E0,2.088382187E1,2.168953194E1
1.641945908E1,5.680387573E0,4.283791809E0,1.795965271E1,1.931752574E1
1.642942808E1,4.751119995E-1,2.187550964E0,1.349563568E1,1.368003264E1
1.643939708E1,1.040186920E0,-1.363664246E-1,1.454225922E1,1.458005102E1
1.644936608E1,2.286046143E0,-5.827381897E-1,1.456126968E1,1.475114116E1
1.645933408E1,2.125579834E-2,2.335144043E-2,1.322754318E1,1.322758087E1
1.646930308E1,-7.683522034E-1,1.045276337E0,1.176598251E1,1.183728483E1
1.647927208E1,-4.393363953E-1,1.988464966E0,1.122021744E1,1.140352089E1
1.648924108E1,3.288661194E-1,2.482737122E0,1.055994049E1,1.085285583E1
1.649921008E1,1.405577087E0,2.412533112E0,1.010039612E1,1.047921584E1
1.650917808E1,3.576662292E0,2.263892212E0,7.953261108E0,9.009555114E0
1.651914708E1,3.605851593E0,2.744243317E0,6.137836304E0,7.629290372E0
1.652911608E1,4.608466644E0,2.112556915E0,6.102210388E0,7.933336823E0
1.653908508E1,4.887037354E0,1.304088135E0,6.310427399E0,8.087352713E0
1.654905308E1,5.031936035E0,4.435276794E-1,6.118676147E0,7.934437274E0
1.655902208E1,4.872218170E0,-4.855902100E-1,5.708229675E0,7.520518185E0
1.656899108E1,4.800517273E0,-1.342109070E0,5.344186707E0,7.307978818E0
1.657896008E1,5.065615997E0,-1.955084381E0,4.696034546E0,7.178827260E0
1.658892908E1,5.306764526E0,-2.276466064E0,3.767515411E0,6.894796578E0
1.659889708E1,5.544320526E0,-2.429148560E0,2.517913971E0,6.555924312E0
1.660886608E1,5.613776093E0,-2.483934631E0,1.143771515E0,6.244407622E0
1.661883508E1,5.820047150E0,-2.614762573E0,2.026785278E-1,6.383651833E0
1.662880408E1,6.415658569E0,-3.214265900E0,-1.808239746E-1,7.178083133E0
1.663877308E1,6.653963013E0,-3.895050201E0,-5.281018066E-1,7.728229510E0
1.664874108E1,6.581962738E0,-4.199966125E0,-8.421487427E-1,7.853098971E0
1.665871008E1,6.487658844E0,-4.080065460E0,-1.263223114E0,7.767392360E0
1.666867908E1,6.516848145E0,-3.920048218E0,-2.422113190E0,7.981398378E0
1.667864808E1,7.413483582E0,-3.353177032E0,-3.933520203E0,9.037483953E0
1.668861608E1,9.823471985E0,-1.837878113E0,-5.755381622E0,1.153268466E1
1.669858508E1,1.256936188E1,6.119274902E-1,-6.983427887E0,1.439206651E1
1.670855408E1,1.386925873E1,2.634820862E0,-6.637796631E0,1.559996675E1
1.671852308E1,1.427940582E1,2.905607758E0,-6.165229340E0,1.582258006E1
1.672849208E1,1.564426758E1,3.005001068E0,-6.258635101E0,1.711559677E1
1.673846008E1,1.785292465E1,4.373605042E0,-6.305337982E0,1.943225738E1
1.674842908E1,2.031799850E1,5.972130890E0,-6.422993317E0,2.213012096E1
