"Time (s)","Acceleration x (m/s^2)","Acceleration y (m/s^2)","Acceleration z (m/s^2)","Absolute acceleration (m/s^2)"
1.675750129E-3,-1.320254517E-1,7.090006256E0,7.148983612E0,1.006943822E1
1.164474990E-2,1.650467834E0,6.814129944E0,6.662495270E0,9.671879558E0
2.161274990E-2,2.605182495E0,5.620212708E0,6.248905334E0,8.799010432E0
3.158175014E-2,2.833906860E0,4.943769379E0,7.194638672E0,9.177946904E0
4.154975014E-2,2.278561707E0,4.117337952E0,8.391849060E0,9.621197738E0
5.151874991E-2,1.479822693E0,2.662662964E0,7.313192139E0,7.922274201E0
6.148674991E-2,1.554517365E0,9.737251282E-1,5.354814606E0,5.660274227E0
7.145575015E-2,2.652633820E0,-7.387138367E-1,5.278024292E0,5.953125628E0
8.142375015E-2,3.122955780E0,-3.728746033E-1,6.869065704E0,7.554862800E0
9.139274992E-2,3.005899200E0,2.115550690E0,8.647218018E0,9.396029170E0
1.013607499E-1,4.187392273E0,1.543590088E0,7.706274719E0,8.905256563E0
1.113297502E-1,5.436844025E0,7.023394775E-1,5.015769653E0,7.430376767E0
1.212977502E-1,3.063529358E0,-7.777825928E-1,2.465073853E0,4.008334690E0
1.312667499E-1,-1.181044006E0,-5.366340637E-1,2.243384857E0,2.591450690E0
1.412347499E-1,-1.342109070E0,3.682342529E-1,9.053323517E0,9.159668112E0
1.512037502E-1,9.623487854E-1,1.084943848E0,8.554411011E0,8.676471983E0
1.611717502E-1,4.180356903E0,1.468446350E0,5.582790527E0,7.127360563E0
1.711407499E-1,3.470233612E0,1.014290771E0,7.288493500E0,8.135935385E0
1.811087499E-1,4.786596222E0,1.303040314E0,6.600973206E0,8.257255277E0
1.910777502E-1,6.941515045E0,7.087760925E-1,1.547975967E1,1.697969241E1
2.010457502E-1,6.836283875E0,-9.340576172E-1,1.156195679E1,1.346425214E1
2.110147499E-1,4.645290070E0,-5.342091064E0,1.010338989E1,1.233673961E1
2.209827499E-1,1.576371918E0,-7.756719818E0,1.109911926E1,1.363239154E1
2.309517502E-1,2.261946259E0,-6.908882904E0,8.286917267E0,1.102370453E1
2.409197502E-1,3.077749786E0,-4.005071411E0,4.598287811E0,6.830621608E0
2.508887500E-1,4.145629120E0,-1.270258484E0,2.069745941E0,4.804544274E0
2.608567500E-1,6.460265808E0,4.010160828E-1,6.915618896E-2,6.473069657E0
2.708257502E-1,8.485703888E0,1.324445801E0,-1.525777130E0,8.722919408E0
2.807937502E-1,9.763147430E0,1.177152100E0,-2.017654266E0,1.003870826E1
2.907627500E-1,1.015877472E1,-2.993774414E-3,-1.562600555E0,1.027825050E1
3.007307500E-1,8.273744659E0,-2.559976501E0,3.395389252E0,9.302526460E0
3.106997502E-1,7.904312897E0,-5.576802979E0,6.624624023E0,1.172452717E1
3.206677502E-1,7.543862457E0,-8.379724274E0,6.372398529E0,1.295133594E1
3.306367500E-1,6.982529755E0,-1.041713745E1,5.669909363E0,1.376300645E1
3.406047500E-1,6.985822906E0,-1.131272507E1,4.372407532E0,1.399633587E1
3.505737502E-1,8.707692261E0,-1.142948227E1,2.376158752E0,1.456375981E1
3.605417502E-1,1.141122025E1,-1.048958679E1,1.181044006E-1,1.550036539E1
3.705107500E-1,1.352317841E1,-9.047186279E0,-8.054750061E-1,1.629038746E1
3.804787500E-1,1.467697906E1,-8.399183807E0,-2.248324585E-1,1.691184652E1
3.904477502E-1,1.524624527E1,-9.197174377E0,2.417472839E0,1.796886714E1
4.004157502E-1,1.550595520E1,-1.045021866E1,5.656587067E0,1.953557509E1
4.103847500E-1,1.617790787E1,-1.090078171E1,8.142617340E0,2.113892055E1
4.203527500E-1,1.793704971E1,-1.102681961E1,9.145082703E0,2.295563201E1
4.303217502E-1,1.951192474E1,-1.135838013E1,8.519383850E0,2.413105691E1
4.402897502E-1,2.087049957E1,-1.140538239E1,7.318880310E0,2.488426227E1
4.502587500E-1,2.240510834E1,-1.081905167E1,5.744903412E0,2.553516543E1
4.602267500E-1,2.378673523E1,-1.010982651E1,4.478985901E0,2.623125387E1
4.701957502E-1,2.477782425E1,-9.234297180E0,2.829266510E0,2.659356253E1
4.801637502E-1,2.579885101E1,-8.512797546E0,7.397616577E-1,2.717711690E1
4.901317502E-1,2.621932663E1,-8.538843384E0,2.168989563E-1,2.757556854E1
5.001007500E-1,2.679802322E1,-7.797285461E0,1.823507996E0,2.796885573E1
5.100687500E-1,2.742237488E1,-6.629264374E0,3.708388367E0,2.845498084E1
5.200377502E-1,2.789209808E1,-5.534291382E0,3.859424286E0,2.869656203E1
5.300057502E-1,2.804672653E1,-4.275708618E0,2.834206238E0,2.851198482E1
5.399747500E-1,2.735127274E1,-2.755170593E0,2.441423035E-1,2.749077465E1
5.499427500E-1,2.555860062E1,-1.693877563E0,-1.957629089E0,2.568936742E1
5.599117503E-1,2.311433350E1,-1.483265533E0,-4.362378387E0,2.356910764E1
5.698797503E-1,2.030632278E1,-2.233655090E0,-5.729485474E0,2.121704418E1
5.798487500E-1,1.728485596E1,-3.989653473E0,-5.339097290E0,1.852537557E1
5.898167500E-1,1.373858047E1,-5.307512970E0,-3.892804871E0,1.523391667E1
5.997857503E-1,1.158470947E1,-6.298452301E0,-1.452429657E0,1.326595443E1
6.097537503E-1,1.036175262E1,-7.300169220E0,8.084687805E-1,1.270086650E1
6.197227500E-1,8.842112732E0,-8.136480103E0,2.426603851E0,1.225861625E1
6.296907500E-1,7.778424683E0,-8.230484619E0,3.828738098E0,1.195424623E1
6.396597503E-1,6.516997833E0,-7.679330750E0,4.127367096E0,1.088478482E1
6.496277503E-1,5.238955536E0,-6.346951447E0,2.996319122E0,8.758331808E0
6.595967500E-1,3.288810883E0,-4.497996368E0,4.031117249E-1,5.586657983E0
6.695647500E-1,2.964435425E0,-2.310445404E0,-2.458487549E0,4.491124178E0
6.795339999E-1,4.069886627E0,-5.611830139E-1,-3.446133728E0,5.362344749E0
6.895019999E-1,5.520220642E0,4.483177185E-1,-2.386936340E0,6.030861448E0
6.994710001E-1,6.374793549E0,4.623884583E-1,-1.019829254E0,6.472391180E0
7.094390001E-1,7.523804169E0,2.866539001E-1,-5.837860107E-3,7.529265151E0
7.194079999E-1,8.923693085E0,-3.465293884E-1,6.860234070E-1,8.956729816E0
7.293759999E-1,8.844358063E0,-1.670077057E0,9.716294861E-1,9.052949286E0
7.393450001E-1,9.111402740E0,-2.751278687E0,2.823278961E0,9.927643144E0
7.493130001E-1,8.728349304E0,-3.818559265E0,4.004921722E0,1.033464438E1
7.592819999E-1,7.800129547E0,-4.624782715E0,2.907703400E0,9.522886914E0
7.692499999E-1,7.326514435E0,-5.037923584E0,1.653461609E0,9.043916358E0
7.792190001E-1,8.549770660E0,-5.150489502E0,3.372486877E-1,9.986984386E0
7.891870001E-1,1.068732559E1,-5.778583374E0,1.492845612E0,1.224089630E1
7.991559999E-1,1.130628845E1,-8.958720245E0,5.353018341E0,1.538654062E1
8.091239999E-1,1.006417145E1,-1.246443008E1,8.007448425E0,1.791001939E1
8.190930001E-1,7.953710175E0,-1.432416275E1,7.537874908E0,1.803504095E1
8.290610001E-1,6.492149506E0,-1.444496155E1,2.447709961E0,1.602486204E1
8.390299999E-1,5.587879944E0,-1.225097397E1,-2.766097870E0,1.374634726E1
8.489979999E-1,6.499783630E0,-9.112600250E0,-3.441493378E0,1.171027528E1
8.589670002E-1,7.423213348E0,-8.192613373E0,-2.789149933E0,1.140185808E1
8.689350002E-1,9.258696442E0,-7.408992920E0,-1.873354340E0,1.200525270E1
8.789039999E-1,1.091485245E1,-6.010451202E0,-1.030008087E0,1.250281745E1
8.888719999E-1,9.929451599E0,-5.128934326E0,-1.356479187E0,1.125788667E1
8.988410002E-1,9.967921600E0,-9.229058075E0,-1.012344818E0,1.362203421E1
9.088090002E-1,1.013078293E1,-9.610165558E0,-8.141569519E-1,1.398752646E1
9.187779999E-1,1.100182159E1,-6.320157166E0,2.797233124E0,1.299265093E1
9.287459999E-1,1.090721832E1,-5.195096741E0,7.651488647E0,1.430040979E1
9.387150002E-1,6.086493073E0,-7.752827911E0,9.140741730E0,1.344265219E1
9.486830002E-1,3.664679260E0,-9.112450562E0,8.460107117E0,1.296302595E1
9.586519999E-1,3.450624390E0,-1.001836670E1,5.238057404E0,1.181997146E1
9.686199999E-1,2.714006195E0,-9.854008484E0,3.007246399E-1,1.022534831E1
9.785890002E-1,2.811603241E0,-7.695796509E0,-3.307971039E0,8.835896620E0
9.885570002E-1,4.205055542E0,-4.780908051E0,-4.534520416E0,7.816741604E0
9.985250002E-1,7.846383362E0,-1.618284760E0,-6.201454010E0,1.013126889E1
1.008494000E0,6.590345306E0,-1.133143616E0,-6.516399078E0,9.337029649E0
1.018462000E0,1.319057007E0,-3.067421265E0,-5.051096191E0,6.054961382E0
1.028431000E0,3.589535522E-1,-5.478756866E0,-2.907553711E0,6.212849027E0
1.038399000E0,3.034639435E0,-8.295150146E0,6.429130554E-1,8.856178050E0
1.048368000E0,4.581672363E0,-1.068373306E1,6.803352356E-1,1.164460089E1
1.058336000E0,5.442532196E0,-1.007449997E1,-2.529739380E-2,1.145064829E1
1.068305000E0,5.461093597E0,-7.856412506E0,3.413651276E0,1.015872904E1
1.078273000E0,8.039332123E0,-5.108127594E0,2.708318024E0,9.902465098E0
1.088242000E0,8.621172180E0,-4.575984192E0,4.547543335E-1,9.770928440E0
1.098210000E0,7.721093903E0,-5.532644806E0,-1.961221619E0,9.699063864E0
1.108179000E0,6.513105927E0,-6.131549377E0,-4.116140442E0,9.846779104E0
1.118147000E0,5.258714447E0,-5.864355011E0,-4.871918793E0,9.261767113E0
1.128116000E0,4.841232605E0,-5.269791412E0,-3.647764435E0,8.032086904E0
1.138084000E0,5.289550323E0,-4.729265442E0,-2.057920532E0,7.387850240E0
1.148053000E0,6.122717743E0,-3.103346558E0,-3.258274384E0,7.598340896E0
1.158021000E0,7.749983826E0,-9.288185120E-1,-4.270469513E0,8.897295262E0
1.167990000E0,9.879455566E0,1.588197327E-1,-2.977009277E0,1.031946947E1
1.177958000E0,1.131826355E1,4.522096252E-1,-1.935175781E0,1.149140934E1
1.187927000E0,1.136781052E1,-5.604345703E-1,-1.628613281E0,1.149754687E1
1.197895000E0,1.106933121E1,-2.243534546E0,-1.928739166E0,1.145790449E1
1.207864000E0,1.065604065E1,-3.778143311E0,-3.407214661E0,1.180824631E1
1.217832000E0,9.697284393E0,-5.149142303E0,-4.952151947E0,1.204470008E1
1.227801000E0,8.934470673E0,-6.024072876E0,-5.746400299E0,1.221209796E1
1.237769000E0,8.421637115E0,-6.224506073E0,-6.494095459E0,1.232240737E1
1.247738000E0,8.095914459E0,-5.806575165E0,-7.181016998E0,1.228117060E1
1.257706000E0,7.257507935E0,-5.026247864E0,-7.466323700E0,1.156203177E1
1.267675000E0,6.259982300E0,-4.264481964E0,-7.358697510E0,1.056047413E1
1.277643000E0,5.421426086E0,-3.853885803E0,-6.722969513E0,9.457410622E0
1.287612000E0,5.413642273E0,-3.690276031E0,-5.937103729E0,8.841654853E0
1.297580000E0,5.985602875E0,-3.770509186E0,-4.865631866E0,8.585951010E0
1.307549000E0,6.368057556E0,-4.762795715E0,-3.367247772E0,8.635666600E0
1.317517000E0,6.718927917E0,-6.849606171E0,-2.453248444E0,9.903510740E0
1.327486000E0,7.458539886E0,-1.022793091E1,-9.334588623E-1,1.269297969E1
1.337454000E0,9.079369354E0,-1.526001663E1,2.223027191E0,1.789538782E1
1.347423000E0,8.857830048E0,-1.951102661E1,6.575825500E0,2.241389733E1
1.357391000E0,6.677613831E0,-1.955997482E1,8.131989441E0,2.221063695E1
1.367360000E0,6.206094360E0,-1.689716217E1,6.701863403E0,1.920793247E1
1.377328000E0,5.737868042E0,-1.204305634E1,3.775448914E0,1.386406687E1
1.387297000E0,4.235442352E0,-7.815248108E0,5.405259705E-1,8.905573717E0
1.397265000E0,3.424578552E0,-6.355034637E0,-3.366499329E-1,7.226862160E0
1.407234000E0,2.202968903E0,-5.558091888E0,-1.651066589E-1,5.981029814E0
1.417202000E0,1.691482544E-2,-6.368207245E0,-1.930984497E-1,6.371156617E0
1.427171000E0,-1.789528656E0,-7.587272186E0,1.617087250E0,7.961412137E0
1.437139000E0,-2.797532501E0,-9.386829987E0,2.972219238E0,1.023586110E1
1.447108000E0,-3.417243805E0,-1.071576645E1,4.442461853E0,1.209300100E1
1.457076000E0,-2.708018646E0,-1.130613876E1,6.260131989E0,1.320421869E1
1.467045000E0,-1.135538635E0,-1.130344437E1,7.651937714E0,1.369706002E1
1.477013000E0,2.522254944E-1,-1.102008362E1,7.871830444E0,1.354516796E1
1.486982000E0,1.145268402E0,-1.057984909E1,6.575376434E0,1.250921347E1
1.496950000E0,2.066003723E0,-1.031340317E1,4.688101044E0,1.151576952E1
1.506918000E0,2.951262817E0,-1.045934967E1,2.366578674E0,1.112243869E1
1.516887000E0,3.613485718E0,-1.061352905E1,4.004173279E-1,1.121893988E1
1.526855000E0,4.219874725E0,-1.040201889E1,-1.016386414E0,1.127130787E1
1.536824000E0,4.451742554E0,-9.906100159E0,-1.935475159E0,1.103154097E1
1.546792000E0,4.360133057E0,-9.190139008E0,-2.423759766E0,1.045676942E1
1.556761000E0,4.140689392E0,-8.669072571E0,-3.324287109E0,1.016607164E1
1.566729000E0,3.908821564E0,-9.350904694E0,-6.914870453E0,1.226921913E1
1.576698000E0,3.050805817E0,-8.689280548E0,-4.477489014E0,1.024006447E1
1.586666000E0,1.579515381E0,-6.449937286E0,-1.497036896E0,6.807178513E0
1.596635000E0,9.726773071E-1,-5.387746124E0,1.543290710E-1,5.477018067E0
1.606603000E0,1.018032990E0,-5.342091064E0,9.385482788E-1,5.518623105E0
1.616572000E0,1.345551910E0,-5.632936249E0,8.990304565E-1,5.860779512E0
1.626540000E0,1.999541931E0,-6.954537964E0,2.550546112E0,7.672617004E0
1.636509000E0,2.202968903E0,-8.697363739E0,3.416345673E0,9.600449247E0
1.646477000E0,2.010020142E0,-1.036953644E1,3.437302094E0,1.110776812E1
1.656446000E0,1.831441498E0,-1.073328003E1,3.041674805E0,1.130527593E1
1.666414000E0,1.730850677E0,-1.017853363E1,2.663112030E0,1.066257739E1
1.676383000E0,2.166444855E0,-9.887239380E0,2.562371521E0,1.044110788E1
1.686351250E0,1.997296600E0,-9.532477112E0,2.191742249E0,9.983037999E0
1.696320250E0,1.600172424E0,-9.181007996E0,1.816023560E0,9.494703849E0
1.706288250E0,1.163979492E0,-8.796307983E0,1.350791016E0,8.975216920E0
1.716257250E0,2.174977112E-1,-8.924740906E0,5.128335571E-1,8.942108462E0
1.726225250E0,-5.804928589E-1,-8.856333160E0,-6.631210327E-2,8.875584843E0
1.736194250E0,-5.782475281E-1,-9.293124847E0,-2.230361938E-1,9.313768559E0
1.746162250E0,-1.051413574E0,-1.030337402E1,-3.403921509E-1,1.036247333E1
1.756131250E0,-1.556014252E0,-1.180400345E1,-1.257385254E-1,1.190678327E1
1.766099250E0,-1.015338593E0,-1.254376511E1,-3.457809448E-2,1.258483815E1
1.776068250E0,-5.111869812E-1,-1.269689667E1,-5.448669434E-2,1.270729971E1
1.786036250E0,2.309696960E-1,-1.259091705E1,7.694000244E-2,1.259327039E1
1.796005250E0,1.223106537E0,-1.184367096E1,3.980223083E-1,1.191330992E1
1.805973250E0,1.871258698E0,-1.137065460E1,7.185058594E-1,1.154597964E1
1.815942250E0,2.562521210E0,-1.104253693E1,1.028062134E0,1.138248868E1
1.825910250E0,3.109034729E0,-1.061906754E1,1.044827271E0,1.111406120E1
1.835879250E0,4.266577606E0,-1.041833496E1,1.133592682E0,1.131505281E1
1.845847250E0,5.591622162E0,-1.036414764E1,3.498225403E-1,1.178151818E1
1.855816250E0,9.562863922E0,-1.018107834E1,-3.094514923E0,1.430659796E1
1.865784250E0,9.923164673E0,-1.069121750E1,-6.233786774E0,1.586289464E1
1.875753250E0,6.284381561E0,-1.152528305E1,-6.531517639E0,1.466241193E1
1.885721250E0,5.326074371E0,-1.206595871E1,-5.821693726E0,1.441688405E1
1.895690250E0,5.544619904E0,-1.281021103E1,-4.112547913E0,1.455188534E1
1.905658250E0,5.295238495E0,-1.403212006E1,-2.714305573E0,1.524163373E1
1.915627250E0,4.433929596E0,-1.466889587E1,-1.765578461E0,1.542574164E1
1.925595250E0,4.943320312E0,-1.416160080E1,-9.372010803E-1,1.502882892E1
1.935564250E0,5.877527618E0,-1.323981766E1,5.248086548E-1,1.449529326E1
1.945532250E0,7.027286682E0,-1.191522217E1,1.726210327E0,1.394041174E1
1.955501250E0,8.650810547E0,-1.045261368E1,2.198478241E0,1.374507048E1
1.965469250E0,9.714797974E0,-9.668544159E0,2.958896942E0,1.402187994E1
1.975438250E0,9.775721283E0,-9.554481354E0,3.214565277E0,1.404230289E1
1.985406250E0,9.277706909E0,-9.773625641E0,3.608096924E0,1.395055436E1
1.995375250E0,8.066725159E0,-1.060634399E1,3.972139893E0,1.390483668E1
2.005343250E0,6.588998108E0,-1.190833649E1,4.136947174E0,1.422454589E1
2.015311250E0,5.314248962E0,-1.322634567E1,3.871249695E0,1.477037698E1
2.025280250E0,4.310586090E0,-1.415980453E1,3.517385559E0,1.521358663E1
2.035248250E0,3.894750824E0,-1.472353226E1,2.849773865E0,1.549427950E1
2.045217250E0,3.575614471E0,-1.477487549E1,1.024020538E0,1.523583219E1
2.055185250E0,2.905607758E0,-1.431967209E1,-2.178120575E0,1.477294061E1
2.065154250E0,2.216889954E0,-1.311138474E1,-4.453089752E0,1.402330272E1
2.075122250E0,2.019899597E0,-1.154758667E1,-3.137026520E0,1.213538989E1
2.085091250E0,1.740730133E0,-1.014096176E1,-1.132544861E0,1.035142042E1
2.095059250E0,1.781295776E0,-8.904532928E0,4.439767456E-1,9.091800518E0
2.105028250E0,1.638043671E0,-7.764803009E0,1.326092377E0,8.045736376E0
2.114996250E0,1.091679840E0,-6.818321228E0,1.210382996E0,7.010441943E0
2.124965250E0,1.066981201E0,-6.162385254E0,3.887416077E-1,6.266144025E0
2.134933250E0,1.211281128E0,-5.979465637E0,-1.022373962E-1,6.101775460E0
2.144902250E0,1.285975800E0,-6.123466187E0,1.466949463E-1,6.258761164E0
2.154870250E0,1.326092377E0,-6.455625458E0,5.909710693E-1,6.616862387E0
2.164839250E0,1.672771454E0,-6.633455658E0,7.415579224E-1,6.881192226E0
2.174807250E0,1.999841309E0,-6.912176056E0,7.261399841E-1,7.232207295E0
2.184776250E0,1.878443756E0,-7.338639221E0,8.014334106E-1,7.617510884E0
2.194744250E0,1.078806610E0,-7.854915619E0,9.979747009E-1,7.991212460E0
2.204713250E0,8.681945801E-3,-7.958799591E0,1.253493347E0,8.056910815E0
2.214681250E0,-6.144721985E-1,-7.810458069E0,1.605112152E0,7.997325575E0
2.224650250E0,-6.319857788E-1,-7.501051483E0,1.702260132E0,7.717698422E0
2.234618250E0,-4.480183411E-1,-7.057224426E0,1.887425079E0,7.318982885E0
2.244587250E0,-3.297642517E-1,-6.495742035E0,1.935624847E0,6.786018906E0
2.254555250E0,-1.580712891E-1,-5.990542603E0,1.682052155E0,6.224217755E0
2.264524250E0,1.317260742E-2,-5.573958893E0,1.434167633E0,5.755521528E0
2.274492250E0,1.742376709E-1,-5.275180206E0,1.211580505E0,5.415331227E0
2.284461250E0,2.472857666E-1,-5.093757477E0,6.562353516E-1,5.141805162E0
2.294429250E0,3.638932800E-1,-5.135071564E0,-2.956352234E-1,5.156430788E0
2.304398250E0,5.783972168E-1,-5.549260254E0,-1.454076233E0,5.765689065E0
2.314366250E0,1.148411865E0,-6.369704132E0,-3.082689514E0,7.169027492E0
2.324335250E0,2.168540497E0,-7.452252960E0,-5.733976135E0,9.649721467E0
2.334303250E0,3.981869659E0,-8.597521362E0,-8.148155823E0,1.249660365E1
2.344272250E0,6.329587555E0,-9.579030304E0,-7.865842896E0,1.391736270E1
2.354240250E0,8.448730774E0,-1.037118301E1,-6.010750580E0,1.466532002E1
2.364209250E0,1.030427216E1,-1.030232620E1,-5.110971680E0,1.544143715E1
2.374177250E0,1.159892990E1,-9.667646027E0,-4.611161041E0,1.578801320E1
2.384146250E0,1.193123886E1,-9.123826904E0,-4.037553864E0,1.555315143E1
2.394114250E0,1.148516647E1,-8.773854675E0,-4.510420532E0,1.514045799E1
2.404083250E0,1.056937088E1,-8.455167389E0,-5.672005005E0,1.467559529E1
2.414051250E0,9.504185944E0,-8.256680145E0,-5.650150452E0,1.379951150E1
2.424020250E0,8.626111908E0,-7.949668579E0,-4.254901886E0,1.247843048E1
2.433988250E0,7.915539551E0,-7.026388550E0,-2.484683075E0,1.087196176E1
2.443957250E0,7.166946259E0,-6.208938446E0,-8.428971863E-1,9.519795742E0
2.453925250E0,5.748945007E0,-6.313870239E0,5.101391602E-1,8.554271919E0
2.463894250E0,3.887116699E0,-7.345225525E0,1.219364319E0,8.399337092E0
2.473862250E0,2.585273895E0,-8.796158295E0,1.255139923E0,9.253724552E0
2.483830250E0,2.062411194E0,-1.020158569E1,6.358776855E-1,1.042737891E1
2.493799250E0,2.083666992E0,-1.181073944E1,-5.146298218E-1,1.200416920E1
2.503767250E0,2.661914520E0,-1.352392685E1,-2.191742249E0,1.395657983E1
2.513736250E0,3.990701294E0,-1.493983246E1,-3.674109650E0,1.589413012E1
2.523704250E0,5.280269623E0,-1.583601883E1,-3.301534424E0,1.701648816E1
2.533673250E0,5.317242737E0,-1.619721771E1,-5.519023132E-1,1.705659779E1
2.543641250E0,3.876339111E0,-1.615021545E1,2.319726105E0,1.677011012E1
2.553610250E0,2.052531738E0,-1.518771698E1,4.072431335E0,1.585762689E1
2.563578250E0,3.230282593E-1,-1.302755905E1,4.658013611E0,1.383902933E1
2.573547250E0,-8.529263306E-1,-1.079839462E1,4.237687683E0,1.163145763E1
2.583515250E0,-1.362167358E0,-9.172475739E0,3.724704437E0,9.993159372E0
2.593484250E0,-1.151555328E0,-8.055049438E0,3.463946686E0,8.843575508E0
2.603452250E0,-6.724017334E-1,-7.446115723E0,3.619622955E0,8.306529587E0
2.613421250E0,-1.471440125E-1,-7.136409760E0,3.431613922E0,7.919972836E0
2.623389250E0,4.733157349E-1,-6.851552124E0,3.078498230E0,7.526283654E0
2.633358250E0,1.039139099E0,-6.703360291E0,2.740650787E0,7.316147619E0
2.643326250E0,1.392404480E0,-6.852300568E0,2.222578125E0,7.337074814E0
2.653295250E0,1.554667053E0,-7.337441711E0,2.191143494E0,7.813843505E0
2.663263250E0,1.525328064E0,-7.952213287E0,2.533780975E0,8.484360194E0
2.673232250E0,9.125024414E-1,-8.458161163E0,2.835703125E0,8.967405599E0
2.683200292E0,3.625460815E-1,-8.881331177E0,3.193758545E0,9.445082148E0
2.693169292E0,5.707630920E-1,-9.022337952E0,3.425925751E0,9.667746370E0
2.703137292E0,1.275347900E0,-8.935518494E0,3.496728516E0,9.679726924E0
2.713106292E0,1.934427338E0,-8.794062653E0,3.283272400E0,9.584227914E0
2.723074292E0,2.278412018E0,-8.612639923E0,2.801723785E0,9.339078324E0
2.733043292E0,2.667453003E0,-8.449928284E0,2.640509033E0,9.246019764E0
2.743011292E0,2.840493164E0,-8.356971588E0,2.272574158E0,9.114382527E0
2.752980292E0,3.218008118E0,-8.299341431E0,1.817071381E0,9.084954201E0
2.762948292E0,3.452570343E0,-8.398734741E0,1.470242615E0,9.198945623E0
2.772917292E0,3.735631714E0,-8.721763000E0,1.135089569E0,9.555758602E0
2.782885292E0,4.107159119E0,-9.232201538E0,9.098080444E-1,1.014544489E1
2.792854292E0,4.796475677E0,-9.696086884E0,1.247056732E0,1.088923460E1
2.802822292E0,6.352190552E0,-1.015623001E1,2.252216492E0,1.218900373E1
2.812791292E0,7.632178802E0,-9.964628448E0,6.159690857E-1,1.256675739E1
2.822759292E0,7.331903229E0,-9.279054108E0,-3.124602356E0,1.223195773E1
2.832728292E0,6.308481445E0,-8.744216309E0,-5.639672241E0,1.216816173E1
2.842696292E0,5.047952728E0,-8.182883606E0,-6.233337708E0,1.145844273E1
2.852665292E0,4.124223633E0,-7.954009552E0,-4.753964081E0,1.014276407E1
2.862633292E0,3.658392334E0,-8.043523407E0,-2.507585449E0,9.185319159E0
2.872602292E0,3.590733032E0,-8.264014893E0,-6.062393188E-1,9.030771394E0
2.882570292E0,3.834725647E0,-8.574618988E0,6.957531738E-1,9.418772959E0
2.892539292E0,4.106710052E0,-8.964558105E0,1.442699890E0,9.965427861E0
2.902507292E0,4.145030365E0,-9.257349243E0,1.768422546E0,1.029597543E1
2.912476292E0,3.924538879E0,-9.348060608E0,1.623374176E0,1.026759886E1
2.922444292E0,3.704795837E0,-9.262438660E0,1.350192261E0,1.006684167E1
2.932413292E0,3.647914124E0,-9.061257019E0,1.202449493E0,9.841724493E0
2.942381292E0,3.789669342E0,-8.878786469E0,1.075363770E0,9.713436576E0
2.952350292E0,4.168681183E0,-8.881031799E0,7.716453552E-1,9.841039842E0
2.962318292E0,4.597090302E0,-9.236542511E0,3.719764709E-1,1.032401682E1
2.972286292E0,5.051694946E0,-9.693991241E0,1.763333130E-1,1.093271153E1
2.982255292E0,5.697302399E0,-9.860295410E0,3.861968994E-2,1.138798365E1
2.992223292E0,6.446644135E0,-9.761949921E0,-3.712280273E-2,1.169855824E1
3.002192292E0,7.216642914E0,-9.345216522E0,-3.594026184E-1,1.181279717E1
3.012160292E0,7.539970551E0,-8.801996155E0,-1.092428284E0,1.164129253E1
3.022129292E0,7.445367279E0,-8.477920074E0,-1.598675537E0,1.139580564E1
3.032097292E0,7.701784058E0,-8.406817932E0,-1.764081573E0,1.153707282E1
3.042066292E0,8.462202759E0,-8.662635956E0,-1.725461884E0,1.223222612E1
3.052034292E0,9.373807068E0,-9.432934113E0,-1.676663361E0,1.340371982E1
3.062003292E0,9.951455841E0,-1.045770309E1,-1.568588104E0,1.452086416E1
3.071971292E0,9.974058838E0,-1.117096985E1,-1.490749969E0,1.504974261E1
3.081940292E0,9.735155640E0,-1.140478363E1,-1.804497528E0,1.510293204E1
3.091908292E0,9.013506317E0,-1.105017105E1,-2.182611237E0,1.442613490E1
3.101877292E0,8.173752594E0,-1.053434372E1,-2.142943726E0,1.350462280E1
3.111845292E0,8.141719208E0,-1.027358597E1,-1.633852386E0,1.320998236E1
3.121814292E0,8.159831543E0,-1.033914963E1,-8.276289368E-1,1.319719044E1
3.131782292E0,7.843688965E0,-1.072654404E1,6.227050781E-2,1.328856957E1
3.141751292E0,7.196734314E0,-1.117306549E1,1.003064117E0,1.332803492E1
3.151719292E0,6.047424316E0,-1.170595734E1,1.620679779E0,1.327506614E1
3.161688292E0,4.864883423E0,-1.237865845E1,1.938618622E0,1.344085257E1
3.171656292E0,4.152514801E0,-1.298235306E1,2.606080627E0,1.387719447E1
3.181625292E0,3.704795837E0,-1.359757370E1,3.592379608E0,1.454388923E1
3.191593292E0,3.099155273E0,-1.433224594E1,4.152365112E0,1.524008442E1
3.201562292E0,2.517315216E0,-1.514819916E1,4.293521576E0,1.594487821E1
3.211530292E0,2.745440826E0,-1.542347672E1,4.081412659E0,1.618885446E1
3.221499292E0,3.351829834E0,-1.501108429E1,3.165467377E0,1.570310792E1
3.231467292E0,3.807033234E0,-1.408600800E1,1.876946869E0,1.471162985E1
3.241436292E0,3.152294769E0,-1.276919632E1,1.138981476E0,1.320176563E1
3.251404292E0,2.126477966E0,-1.123847946E1,1.185834045E0,1.149919700E1
3.261373292E0,1.525477753E0,-9.938732300E0,1.895508270E0,1.023222526E1
3.271341292E0,1.300944672E0,-8.632099457E0,2.521805878E0,9.086534155E0
3.281310292E0,4.251159668E-1,-7.755522308E0,3.241658936E0,8.416483976E0
3.291278292E0,6.870712280E-2,-6.778953094E0,3.874991913E0,7.808616270E0
3.301247292E0,1.269360352E-1,-5.721701660E0,4.198768616E0,7.098143457E0
3.311215292E0,8.547225952E-2,-5.198090515E0,3.320544891E0,6.168749378E0
3.321184292E0,2.757266235E-1,-5.127287750E0,1.799408112E0,5.440861549E0
3.331152292E0,7.481442261E-1,-5.327421570E0,6.643185425E-1,5.420558965E0
3.341121292E0,1.257834320E0,-5.908513184E0,4.879852295E-1,6.060594426E0
3.351089292E0,9.125024414E-1,-6.779551849E0,8.446934509E-1,6.892640351E0
3.361058292E0,2.911445618E-1,-7.604336700E0,1.229393463E0,7.708573804E0
3.371026292E0,4.610412598E-2,-8.149353333E0,1.479523315E0,8.282697300E0
3.380995292E0,9.909393311E-2,-8.509354706E0,1.625020752E0,8.663696068E0
3.390963292E0,9.145980835E-2,-8.663534088E0,1.646426239E0,8.819064982E0
3.400932292E0,-1.519340515E-1,-8.668473816E0,1.595681763E0,8.815425261E0
3.410900292E0,-6.294410706E-1,-8.608598328E0,1.329385529E0,8.733351425E0
3.420869292E0,-1.038989410E0,-8.263715515E0,1.059646454E0,8.395912322E0
3.430837292E0,-1.257984009E0,-7.660919037E0,9.237290955E-1,7.818278564E0
3.440806292E0,-1.216969299E0,-7.033872986E0,5.800437927E-1,7.161901581E0
3.450774292E0,-1.264121246E0,-6.570436707E0,1.197509766E-3,6.690937339E0
3.460743292E0,-1.295555878E0,-6.330335999E0,-7.782316589E-1,6.508245801E0
3.470711292E0,-1.266815643E0,-6.353986816E0,-1.911674652E0,6.755180998E0
3.480679292E0,-9.144483948E-1,-6.663842468E0,-2.695295105E0,7.246214737E0
3.490648292E0,2.300715637E-1,-7.194189606E0,-2.687660980E0,7.683281757E0
3.500616292E0,1.882784729E0,-7.744295654E0,-3.272494812E0,8.615579830E0
3.510585292E0,3.793261871E0,-8.156388702E0,-4.018842773E0,9.852238808E0
3.520553292E0,5.746999054E0,-8.451724548E0,-4.707261200E0,1.125246435E1
3.530522292E0,7.751929779E0,-8.536747742E0,-5.104834442E0,1.261062298E1
3.540490292E0,1.000938538E1,-8.532107391E0,-4.829856262E0,1.401114427E1
3.550459292E0,1.185834045E1,-8.501570892E0,-3.343147888E0,1.496908761E1
3.560427292E0,1.249781067E1,-8.828341370E0,-2.237546997E0,1.546420057E1
3.570396292E0,1.150702103E1,-9.421707458E0,-3.762126617E0,1.534058998E1
3.580364292E0,1.098864899E1,-9.667196960E0,-4.871320038E0,1.542513736E1
3.590333292E0,1.211939758E1,-9.015152893E0,-2.568209381E0,1.532150381E1
3.600301292E0,1.338741074E1,-7.898475037E0,1.177152100E0,1.558827640E1
3.610270292E0,1.291334656E1,-7.646997986E0,3.741918640E0,1.546716046E1
3.620238292E0,1.008048752E1,-8.818611603E0,4.530927887E0,1.413907517E1
3.630207292E0,6.946903839E0,-1.058119629E1,3.854783936E0,1.323180060E1
3.640175292E0,4.836891632E0,-1.257729538E1,2.237546997E0,1.365981319E1
3.650144292E0,4.065994720E0,-1.464868790E1,-9.479786682E-1,1.523203971E1
3.660112292E0,3.541635132E0,-1.647159714E1,-6.979835358E0,1.823663328E1
3.670081292E0,2.595003662E0,-1.679881668E1,-7.844587097E0,1.872089294E1
3.680049292E0,1.666035461E0,-1.574770248E1,-2.578837280E0,1.604419551E1
3.690018500E0,7.041357422E-1,-1.422342224E1,8.747808838E-1,1.426768338E1
3.699986500E0,-6.240522766E-1,-1.235216354E1,2.709066467E0,1.266113844E1
3.709955500E0,-1.903591461E0,-1.067909271E1,3.774101715E0,1.148523075E1
3.719923500E0,-2.296674042E0,-9.366172943E0,4.208947449E0,1.052212649E1
3.729892500E0,-2.499202881E0,-8.509354706E0,4.654121704E0,1.001578661E1
3.739860500E0,-2.449356537E0,-8.039781189E0,4.879852295E0,9.718558917E0
3.749829500E0,-2.459235992E0,-7.714956665E0,4.504283295E0,9.265903410E0
3.759797500E0,-1.812281342E0,-7.149133301E0,3.960763550E0,8.371506347E0
3.769766500E0,-1.272054749E0,-6.994355164E0,3.525319061E0,7.935174977E0
3.779734500E0,-1.106798401E0,-7.290289764E0,2.955154724E0,7.943945304E0
3.789703500E0,-6.391708374E-1,-7.536228333E0,2.367776184E0,7.925253365E0
3.799671500E0,-2.978805542E-2,-7.804620209E0,2.257305908E0,8.124556228E0
3.809640500E0,1.311273193E-1,-8.155640259E0,2.712958374E0,8.596034292E0
3.819608500E0,1.643582153E-1,-8.364006958E0,3.287912750E0,8.988548062E0
3.829577500E0,2.062710571E-1,-8.407416687E0,3.933669891E0,9.284447313E0
3.839545500E0,3.308120728E-1,-8.707392883E0,4.283492432E0,9.709605289E0
3.849514500E0,5.710624695E-1,-9.086105347E0,4.024381256E0,9.953846855E0
3.859482500E0,9.240284729E-1,-9.300160217E0,3.499871979E0,9.979775176E0
3.869451500E0,1.597028961E0,-9.386231232E0,2.940934296E0,9.964985337E0
3.879419500E0,2.433938599E0,-9.430688782E0,2.370021515E0,1.002391889E1
3.889388500E0,3.260220337E0,-9.500144348E0,1.877395935E0,1.021794474E1
3.899356500E0,3.683240662E0,-9.630672913E0,1.319955139E0,1.039511443E1
3.909325500E0,4.025129700E0,-9.861193542E0,9.431886292E-1,1.069272706E1
3.919293500E0,4.296515350E0,-1.009141479E1,7.427554321E-1,1.099310613E1
3.929262500E0,4.621639252E0,-1.026565247E1,1.035396881E0,1.130553920E1
3.939230500E0,7.063062286E0,-1.023616379E1,1.955683136E0,1.258930477E1
3.949198500E0,8.031847687E0,-9.184151459E0,-1.341210938E0,1.227428458E1
3.959167500E0,7.041656799E0,-8.186027069E0,-4.610113220E0,1.174091621E1
3.969135500E0,6.056255951E0,-7.682324524E0,-5.091811523E0,1.102827687E1
3.979104500E0,5.003046112E0,-7.338788910E0,-3.838168488E0,9.675734101E0
3.989072500E0,4.123924255E0,-7.351512451E0,-1.857187958E0,8.631374960E0
3.999041500E0,3.745511169E0,-7.489525452E0,-5.634283447E-1,8.392812217E0
4.009009500E0,3.953578491E0,-7.909402313E0,2.507286072E-1,8.846032595E0
4.018978500E0,4.611610107E0,-8.533005524E0,9.960287476E-1,9.750446365E0
4.028946500E0,5.422024841E0,-9.101373596E0,1.887874146E0,1.076092113E1
4.038915500E0,6.236181793E0,-9.616153107E0,2.773881683E0,1.179214923E1
4.048883500E0,6.813980255E0,-9.982441406E0,2.701731720E0,1.238462021E1
4.058852500E0,6.883735199E0,-1.000983444E1,1.350192261E0,1.222315896E1
4.068820500E0,6.771768036E0,-9.977202301E0,-6.887178040E-1,1.207790298E1
4.078789500E0,6.917864227E0,-9.814490662E0,-3.570225677E0,1.252707403E1
4.088757500E0,7.351063385E0,-9.579329681E0,-5.196144562E0,1.314540256E1
4.098726500E0,7.555388489E0,-9.349108429E0,-4.250710602E0,1.274983389E1
4.108694500E0,7.646099854E0,-9.147477722E0,-2.220183105E0,1.212717629E1
4.118663500E0,8.020770721E0,-8.650361481E0,-5.204676819E-1,1.180814987E1
4.128631500E0,8.491841125E0,-8.083639984E0,8.123606873E-1,1.175229897E1
4.138600500E0,9.042396240E0,-7.754175110E0,1.590143280E0,1.201751709E1
4.148568500E0,9.484127655E0,-8.052804108E0,1.704804840E0,1.255797320E1
4.158537500E0,9.120683441E0,-8.734187164E0,7.189549255E-1,1.264870697E1
4.168505500E0,8.222102051E0,-9.411828003E0,-1.385219421E0,1.257395329E1
4.178474500E0,7.315437469E0,-9.929301910E0,-4.079766083E0,1.299042544E1
4.188442500E0,6.657405853E0,-1.017284546E1,-5.883964233E0,1.350662328E1
4.198411500E0,5.894741821E0,-1.053584061E1,-4.961432648E0,1.305249908E1
4.208379500E0,5.398972778E0,-1.095871124E1,-2.109712830E0,1.239730404E1
4.218348500E0,5.054539032E0,-1.139131165E1,3.701802063E-1,1.246785383E1
4.228316500E0,4.321663055E0,-1.187360870E1,2.249522095E0,1.283431747E1
4.238285500E0,3.252436523E0,-1.242461288E1,3.405119019E0,1.328699305E1
4.248253500E0,2.869832153E0,-1.300031570E1,3.853137360E0,1.385968299E1
4.258222500E0,2.594105530E0,-1.395218628E1,3.728895721E0,1.467302112E1
4.268190500E0,2.554288330E0,-1.466485428E1,3.472778320E0,1.528536977E1
4.278159500E0,2.409988403E0,-1.528531403E1,3.610042877E0,1.588965948E1
4.288127500E0,2.421813812E0,-1.571432190E1,2.644251251E0,1.611822445E1
4.298096500E0,2.152523804E0,-1.606294693E1,3.239263916E-1,1.620976715E1
4.308064500E0,1.374142456E0,-1.595547043E1,-1.341360626E0,1.607061145E1
4.318033500E0,3.980223083E-1,-1.485705460E1,-1.086590424E0,1.490205260E1
4.328001500E0,6.436614990E-2,-1.309012894E1,3.766168213E-1,1.309570383E1
4.337970500E0,7.334747314E-2,-1.157078842E1,1.153950348E0,1.162841889E1
4.347938500E0,-3.847000122E-1,-1.043195663E1,1.638792114E0,1.056689893E1
4.357907500E0,-6.489006042E-1,-9.508826294E0,2.168540497E0,9.774529010E0
4.367875500E0,-6.050418091E-1,-8.388256531E0,2.588567047E0,8.799409217E0
4.377844500E0,-2.522254944E-1,-7.223528595E0,2.847977600E0,7.768781080E0
4.387812500E0,-2.426454163E-1,-6.412215729E0,3.428769836E0,7.275427818E0
4.397780500E0,3.632945251E-1,-6.054160309E0,2.709515533E0,6.642764062E0
4.407749500E0,2.247426453E0,-5.050796814E0,-2.709365845E-2,5.528309704E0
4.417717500E0,2.347268829E0,-5.106181641E0,-1.267863464E0,5.761097089E0
4.427686500E0,1.988165588E0,-5.631289673E0,-1.717977448E0,6.214150971E0
4.437654500E0,1.159039764E0,-6.493796082E0,-1.166224823E0,6.698719360E0
4.447623500E0,4.532574463E-1,-7.287295990E0,1.315763855E-1,7.302563762E0
4.457591500E0,-2.359094238E-1,-7.683372345E0,9.848020935E-1,7.749819289E0
4.467560500E0,-6.993457031E-1,-7.508685608E0,1.165476379E0,7.630712887E0
4.477528500E0,-6.462062073E-1,-7.129673767E0,9.259744263E-1,7.218535802E0
4.487497500E0,-5.864804077E-1,-6.756350098E0,2.731819153E-1,6.787256756E0
4.497465500E0,-4.161346436E-1,-6.414311371E0,-1.228345642E0,6.544111202E0
4.507434500E0,3.802093506E-2,-6.169720001E0,-4.084256744E0,7.399192094E0
4.517402500E0,1.244811401E0,-6.493646393E0,-7.219636688E0,9.789798405E0
4.527371500E0,3.059188385E0,-7.541467438E0,-8.883277130E0,1.204761293E1
4.537339500E0,4.927153931E0,-8.566086731E0,-8.167016602E0,1.282009547E1
4.547308500E0,6.950646057E0,-8.689280548E0,-5.591173096E0,1.245296325E1
4.557276500E0,8.914861450E0,-7.959098969E0,-3.737877045E0,1.252173055E1
4.567245500E0,9.711205444E0,-7.046746216E0,-2.005679169E0,1.216498633E1
4.577213500E0,9.785301361E0,-6.283184052E0,-9.650431824E-1,1.166884025E1
4.587182500E0,9.284143524E0,-5.825435944E0,-4.144880676E-1,1.096826446E1
4.597150500E0,7.956404572E0,-5.686674500E0,-7.185058594E-3,9.779708186E0
4.607119500E0,6.632108459E0,-5.872438202E0,1.469943237E-1,8.859571117E0
4.617087500E0,6.595285034E0,-6.434219971E0,4.046086121E-1,9.222834675E0
4.627056500E0,7.219636688E0,-6.637048187E0,1.106049957E0,9.868987236E0
4.637024500E0,7.402705994E0,-6.531068573E0,2.706521759E0,1.023621868E1
4.646993500E0,5.847290497E0,-7.340136108E0,3.850742340E0,1.014379716E1
4.656961500E0,3.541036377E0,-9.342522125E0,3.306923218E0,1.052413414E1
4.666930500E0,3.324137421E0,-1.222672440E1,2.294578400E0,1.287663656E1
4.676898500E0,4.569996643E0,-1.629286880E1,-4.924758911E-2,1.692172771E1
4.686866750E0,4.674329681E0,-1.995635056E1,-3.006947021E0,2.071586387E1
4.696834750E0,3.935166779E0,-2.154469757E1,-1.677112427E0,2.196525067E1
4.706803750E0,2.993175659E0,-2.144260986E1,4.025129700E-1,2.165425212E1
4.716771750E0,1.557810516E0,-1.963362167E1,1.298250275E0,1.973806798E1
4.726740750E0,-3.594026184E-1,-1.619931335E1,2.643203430E0,1.641747385E1
4.736708750E0,-1.553170166E0,-1.300944672E1,3.419638824E0,1.354075224E1
4.746677750E0,-2.007924500E0,-1.050545380E1,2.982697449E0,1.110372930E1
4.756645750E0,-2.573448486E0,-8.786578217E0,2.942131805E0,9.616794343E0
4.766614750E0,-2.962639160E0,-7.453300781E0,3.124452667E0,8.607620333E0
4.776582750E0,-2.770289154E0,-6.077960815E0,2.596949615E0,7.166607076E0
4.786551750E0,-1.662592621E0,-4.790039062E0,2.309397583E0,5.571535304E0
4.796519750E0,-2.305206299E-1,-4.341122589E0,2.341131592E0,4.937548200E0
4.806488750E0,1.014590149E0,-4.670587463E0,1.960922241E0,5.166139415E0
4.816456750E0,1.840123444E0,-5.748196564E0,2.195334778E0,6.422407088E0
4.826425750E0,1.707648926E0,-7.305258636E0,3.235072632E0,8.169979408E0
4.836393750E0,1.317859497E0,-8.571625214E0,4.448748779E0,9.746839393E0
4.846362750E0,9.172924805E-1,-9.133257294E0,4.909790039E0,1.040979599E1
4.856330750E0,9.707313538E-1,-9.316176910E0,5.173391876E0,1.070034836E1
4.866298750E0,1.376836853E0,-9.364376678E0,5.115162964E0,1.075881603E1
4.876267750E0,1.820514221E0,-9.293573914E0,4.312831421E0,1.040602244E1
4.886236750E0,2.260000305E0,-9.053473206E0,3.323239288E0,9.905397409E0
4.896204750E0,2.811004486E0,-8.829838257E0,2.377655640E0,9.566662752E0
4.906172750E0,3.119063873E0,-8.784482574E0,1.608854370E0,9.459603899E0
4.916141750E0,3.726949768E0,-8.949589233E0,1.198557587E0,9.768410429E0
4.926109750E0,4.432283020E0,-9.170080719E0,9.949809265E-1,1.023354778E1
4.936078750E0,5.494773560E0,-9.389823761E0,1.987267456E0,1.105941041E1
4.946046750E0,8.124055939E0,-9.745633850E0,2.285597076E0,1.289192065E1
4.956015750E0,8.069718933E0,-9.441166992E0,-4.451443176E0,1.319360998E1
4.965983750E0,6.623426514E0,-8.935668182E0,-1.016940262E1,1.507092214E1
4.975952750E0,5.172044678E0,-8.480913849E0,-1.023182281E1,1.426065019E1
4.985920750E0,4.444707184E0,-8.215515747E0,-5.206173706E0,1.069366007E1
4.995889750E0,3.634891205E0,-8.100704498E0,-1.386716309E0,8.986480377E0
5.005857750E0,2.730921021E0,-8.036488037E0,8.199948120E-1,8.527336107E0
5.015826750E0,2.195634155E0,-7.949219513E0,2.027384033E0,8.492419339E0
5.025794750E0,2.368674316E0,-8.117319946E0,2.568059692E0,8.837218551E0
5.035763750E0,3.135679321E0,-8.663983154E0,2.234852600E0,9.481120981E0
5.045731750E0,3.754193115E0,-9.278904419E0,1.381028137E0,1.010441843E1
5.055700750E0,4.423002319E0,-9.672286377E0,8.578660583E-1,1.067014562E1
5.065668750E0,5.189707947E0,-9.903256073E0,5.839356995E-1,1.119591579E1
5.075637750E0,5.862259369E0,-1.019005966E1,3.716770935E-1,1.176186825E1
5.085605750E0,6.676865387E0,-1.019484970E1,-2.023791504E-1,1.218837352E1
5.095574750E0,8.038284302E0,-9.511071625E0,-1.336720276E0,1.252442889E1
5.105542750E0,9.014853516E0,-8.559500427E0,-2.713108063E0,1.272374107E1
5.115511750E0,9.404493256E0,-8.009095001E0,-2.719394989E0,1.264852581E1
5.125479750E0,9.646839294E0,-7.737110596E0,-1.888323212E0,1.250960244E1
5.135448750E0,1.005848328E1,-7.448660431E0,-1.023421783E0,1.255798631E1
5.145416750E0,1.050994446E1,-6.984924774E0,-2.398013306E-1,1.262163267E1
5.155385750E0,1.079794556E1,-6.613247681E0,2.618055725E-1,1.266488118E1
5.165353750E0,1.093401260E1,-6.783443756E0,1.173559570E-1,1.286784804E1
5.175322750E0,1.115375565E1,-7.623347168E0,-8.876541138E-1,1.353918819E1
5.185290750E0,1.122081619E1,-8.303383026E0,-2.596650238E0,1.419843224E1
5.195259750E0,1.096664474E1,-8.709488525E0,-4.289779358E0,1.464666154E1
5.205227750E0,1.029319519E1,-9.567653961E0,-4.619992676E0,1.479304573E1
5.215196750E0,9.081315308E0,-1.064316742E1,-2.545905762E0,1.422072208E1
5.225164750E0,7.936046906E0,-1.149429749E1,1.148112488E-1,1.396828181E1
5.235133750E0,7.319778442E0,-1.225741058E1,1.422342224E0,1.434734568E1
5.245101750E0,6.815028076E0,-1.331825455E1,2.068099365E0,1.510289862E1
5.255070750E0,6.273304596E0,-1.452444626E1,2.809657288E0,1.606885384E1
5.265038750E0,5.461842041E0,-1.598016907E1,3.352578278E0,1.721735470E1
5.275007750E0,4.952451324E0,-1.743529312E1,3.661236420E0,1.849110252E1
5.284975750E0,4.500541077E0,-1.902184387E1,4.124672699E0,1.997744576E1
5.294944750E0,3.880829773E0,-2.061677719E1,4.506828003E0,2.145748914E1
5.304912750E0,3.567980347E0,-2.161550034E1,3.374283142E0,2.216632864E1
5.314881750E0,3.183729401E0,-2.179827026E1,2.796185303E-1,2.203131648E1
5.324849750E0,2.333497467E0,-2.075269455E1,-3.223097534E0,2.113073352E1
5.334818750E0,9.862989807E-1,-1.800216431E1,-2.288590851E0,1.817383706E1
5.344786750E0,-2.414479065E-1,-1.498578690E1,4.450245667E-1,1.499433736E1
5.354755750E0,-1.646426239E0,-1.277533356E1,1.606908417E0,1.298083285E1
5.364723750E0,-1.814376984E0,-1.041564056E1,2.063459015E0,1.077197267E1
5.374692750E0,-1.975442047E0,-8.339607697E0,1.928290100E0,8.784630358E0
5.384660750E0,-1.936223602E0,-6.603667603E0,1.755549316E0,7.102065970E0
5.394629750E0,-1.497036896E0,-5.115013275E0,1.846859436E0,5.640511506E0
5.404597750E0,-5.394781494E-1,-3.859274597E0,1.156495056E0,4.064790020E0
5.414566750E0,1.959425354E-1,-3.248245239E0,3.918850708E-1,3.277661441E0
5.424534750E0,6.140231323E-1,-3.068169708E0,1.347198486E-2,3.129036794E0
5.434502750E0,6.198609924E-1,-3.242407379E0,5.628295898E-2,3.301605827E0
5.444471750E0,-1.989363098E-1,-3.838318176E0,4.614903259E-1,3.871076775E0
5.454439750E0,-1.780098267E0,-5.074747009E0,1.313668213E0,5.536021245E0
5.464408750E0,-3.298690338E0,-6.105653229E0,2.043251038E0,7.234309511E0
5.474376750E0,-4.188290405E0,-6.554120636E0,2.265389099E0,8.101250620E0
5.484345750E0,-4.443958740E0,-6.395899658E0,2.031874695E0,8.048901571E0
5.494313750E0,-4.209695892E0,-5.914351044E0,1.516346741E0,7.416225132E0
5.504282750E0,-4.032165070E0,-5.316045227E0,7.887098694E-1,6.718687019E0
5.514250750E0,-3.754193115E0,-4.648283844E0,2.059716797E-1,5.978539368E0
5.524219750E0,-3.385210419E0,-4.089645538E0,-1.187031555E-1,5.310267474E0
5.534187750E0,-2.864143982E0,-3.804338837E0,-3.861968994E-1,4.777600107E0
5.544156750E0,-2.371069336E0,-3.980672150E0,-5.254074097E-1,4.663021928E0
5.554124750E0,-1.648222504E0,-4.777614899E0,-6.685098267E-1,5.097955171E0
5.564093750E0,-1.009051666E0,-6.125861206E0,-1.185983734E0,6.320673872E0
5.574061750E0,6.855743408E-2,-7.615114288E0,-3.269501038E0,8.287599338E0
5.584030750E0,2.804118805E0,-9.120384064E0,-6.461912384E0,1.152392292E1
5.593998750E0,7.336543579E0,-1.021131546E1,-7.133116608E0,1.445604329E1
5.603967750E0,1.277563293E1,-1.019065842E1,-6.354884949E0,1.753427725E1
5.613935750E0,1.704595276E1,-9.308692474E0,-3.977828064E0,1.982522073E1
5.623904750E0,1.820903412E1,-8.871751099E0,-1.069076843E0,2.028348630E1
5.633872750E0,1.671035065E1,-8.937614136E0,-1.427731018E0,1.900408327E1
5.643841750E0,1.441442505E1,-8.385412445E0,-4.721331940E0,1.733152523E1
5.653809750E0,1.090227859E1,-7.933352509E0,-6.567742310E0,1.499776649E1
5.663778750E0,6.431974640E0,-8.717871094E0,-4.683161316E0,1.180269351E1
5.673746750E0,4.982538757E0,-1.013302826E1,-1.284329224E-1,1.129249526E1
5.683715375E0,5.480104065E0,-1.181597855E1,3.453318787E0,1.347495084E1
5.693683375E0,7.047794037E0,-1.385548737E1,4.977599030E0,1.632245150E1
5.703652375E0,6.868616638E0,-1.593226868E1,4.409530334E0,1.790136971E1
5.713620375E0,5.848038940E0,-1.780322800E1,1.771116943E0,1.882262845E1
5.723589375E0,5.482948151E0,-2.025363235E1,-8.599617004E-1,2.100028281E1
5.733557375E0,4.952750702E0,-2.206007584E1,-1.516646118E0,2.266002870E1
5.743526375E0,4.165537720E0,-2.207489502E1,-1.379082184E0,2.250676703E1
5.753494375E0,1.974843292E0,-1.891361893E1,-1.208886108E0,1.905482597E1
5.763463375E0,-1.786235504E0,-1.439047485E1,-1.838177490E-1,1.450207546E1
5.773431375E0,-3.534001007E0,-1.078073135E1,2.128723297E0,1.154317090E1
5.783400375E0,-3.603306885E0,-8.357121277E0,3.179388428E0,9.640218219E0
5.793368375E0,-4.147126007E0,-6.510860596E0,2.670746155E0,8.168405281E0
5.803337375E0,-4.204307098E0,-5.278323669E0,2.229613495E0,7.106903353E0
5.813305375E0,-3.837869110E0,-5.200485535E0,2.421514435E0,6.902030227E0
5.823274375E0,-2.867886200E0,-6.151607666E0,2.888393555E0,7.376304323E0
5.833242375E0,-1.141526184E0,-7.860753479E0,2.873424683E0,8.446957837E0
5.843211375E0,7.849676514E-1,-9.456285553E0,2.559677124E0,9.827993572E0
5.853179375E0,2.550695801E0,-1.032477951E1,2.138453064E0,1.084804602E1
5.863148375E0,3.043022003E0,-1.097861984E1,1.957778778E0,1.155954040E1
5.873116375E0,2.911445618E0,-1.105211700E1,2.278262329E0,1.165402442E1
5.883085375E0,2.257156219E0,-1.023706192E1,2.479443970E0,1.077217867E1
5.893053375E0,1.048569489E0,-9.400451660E0,2.976111145E0,9.915907772E0
5.903022375E0,3.592529297E-2,-8.535699921E0,3.267704773E0,9.139877365E0
5.912990375E0,-4.137396240E-1,-7.603737946E0,3.134781189E0,8.234978101E0
5.922959375E0,1.362167358E-2,-6.873256989E0,2.996468811E0,7.498044579E0
5.932927375E0,8.334667969E-1,-6.652915192E0,2.592758331E0,7.188765069E0
5.942896375E0,1.704804840E0,-6.866820374E0,1.873653717E0,7.319163876E0
5.952864375E0,2.274220734E0,-7.396419067E0,1.151705017E0,7.823395645E0
5.962833375E0,2.789898376E0,-7.904163208E0,7.694000244E-1,8.417321746E0
5.972801375E0,3.495680695E0,-8.244854736E0,5.918692017E-1,8.974838288E0
5.982769375E0,4.137845306E0,-8.528664551E0,5.544470215E-1,9.495646071E0
5.992738375E0,4.338577881E0,-8.835975494E0,6.033952332E-1,9.862140071E0
6.002706375E0,4.234095154E0,-9.290879517E0,7.617658997E-1,1.023856881E1
6.012675375E0,4.234544220E0,-9.767937469E0,9.261241150E-1,1.068651828E1
6.022643375E0,4.680167542E0,-1.003243744E1,8.836125183E-1,1.110560850E1
6.032612375E0,5.350323944E0,-9.902058563E0,1.116677856E0,1.131033596E1
6.042580375E0,6.112538910E0,-9.373507690E0,1.451681213E0,1.128419943E1
6.052549375E0,6.168223114E0,-8.722212067E0,8.081694031E-1,1.071340737E1
6.062517375E0,5.811514893E0,-8.348738708E0,-3.207829285E-1,1.017732996E1
6.072486375E0,5.538033600E0,-8.218359833E0,-1.035247192E0,9.964085068E0
6.082454375E0,5.273383942E0,-8.162226562E0,-1.244512024E0,9.796904145E0
6.092423375E0,5.095404053E0,-8.153095551E0,-1.185834045E0,9.687224159E0
6.102391375E0,5.003345490E0,-8.191266174E0,-9.735754395E-1,9.647702149E0
6.112360375E0,5.244793396E0,-8.200995941E0,-7.659571838E-1,9.764777652E0
6.122328375E0,5.607339478E0,-8.127648468E0,-5.623805237E-1,9.890257706E0
6.132297375E0,6.209836578E0,-8.056995392E0,-2.688409424E-1,1.017592848E1
6.142265375E0,6.944508820E0,-8.083340607E0,-6.271957397E-2,1.065694759E1
6.152234375E0,7.523205414E0,-8.009693756E0,2.124082947E-1,1.099085670E1
6.162202375E0,8.279283142E0,-7.866291962E0,4.393363953E-1,1.142882737E1
6.172171375E0,9.167835388E0,-7.775879974E0,3.689826965E-1,1.202703884E1
6.182139375E0,1.012434631E1,-7.763006744E0,4.161346436E-2,1.275807171E1
6.192108375E0,1.088341782E1,-7.786208496E0,-3.173400879E-1,1.338560909E1
6.202076375E0,1.134041748E1,-8.042475586E0,-7.303312683E-1,1.392192034E1
6.212045375E0,1.106978027E1,-8.774004364E0,-1.337917786E0,1.418848871E1
6.222013375E0,1.042986099E1,-9.590406647E0,-2.129471741E0,1.432803371E1
6.231982375E0,9.862091675E0,-1.029544052E1,-3.051404572E0,1.457971253E1
6.241950375E0,9.226663055E0,-1.070543793E1,-3.700754242E0,1.460935640E1
6.251919375E0,8.546776886E0,-1.079914307E1,-3.526366882E0,1.421633390E1
6.261887375E0,7.512727203E0,-1.108205475E1,-2.681972809E0,1.365452253E1
6.271856375E0,6.153104553E0,-1.164967438E1,-1.833686829E0,1.330180500E1
6.281824375E0,5.556595001E0,-1.207149719E1,-1.022523651E0,1.332825371E1
6.291793375E0,4.946164398E0,-1.314671127E1,-1.616638184E-1,1.404730205E1
6.301761375E0,4.157604218E0,-1.471529938E1,5.140310669E-1,1.529999793E1
6.311730375E0,3.508853302E0,-1.632939285E1,5.252577209E-1,1.671038653E1
6.321698375E0,2.830763397E0,-1.788286240E1,-3.112028503E-1,1.810819804E1
6.331667375E0,1.961970062E0,-1.925056824E1,-1.934876404E0,1.944678510E1
6.341635375E0,1.105301514E0,-2.062471069E1,-5.158123627E0,2.128865007E1
6.351604375E0,3.341052246E-1,-2.123978165E1,-7.495063934E0,2.252589475E1
6.361572375E0,-4.858895874E-1,-2.030841843E1,-4.290527802E0,2.076238369E1
6.371541375E0,-4.692741394E-1,-1.786669601E1,-2.510279846E-1,1.787462055E1
6.381509375E0,-1.001417542E-1,-1.499491791E1,1.508862305E0,1.507097399E1
6.391478375E0,-3.683839417E-1,-1.244182709E1,1.652114410E0,1.255644257E1
6.401446375E0,-5.028044128E-1,-1.066412384E1,1.638343048E0,1.080094984E1
6.411415375E0,-2.538720703E-1,-9.194030914E0,1.482068024E0,9.316178461E0
6.421383375E0,-4.215234375E-1,-7.854466553E0,1.024170227E0,7.932165624E0
6.431352375E0,8.756790161E-2,-6.483766937E0,2.888992310E-1,6.490790753E0
6.441320375E0,7.412585449E-1,-5.443430328E0,-3.468287659E-1,5.504606086E0
6.451289375E0,1.214723969E0,-4.784350891E0,-6.722520447E-1,4.981715626E0
6.461257375E0,1.846110992E0,-4.298461304E0,-9.553134155E-1,4.774674764E0
6.471226375E0,2.464924164E0,-4.467160492E0,-9.569599915E-1,5.191064093E0
6.481194375E0,2.475252686E0,-5.314997406E0,2.204914856E-1,5.867255728E0
6.491163375E0,1.804048462E0,-6.271508331E0,1.246158600E0,6.643742835E0
6.501131375E0,1.313518524E0,-7.227270813E0,1.825004883E0,7.568977285E0
6.511100375E0,8.382568359E-1,-7.924221497E0,2.151176605E0,8.253697452E0
6.521068375E0,3.152444458E-1,-8.322992249E0,2.231409760E0,8.622689171E0
6.531036375E0,-1.999841309E-1,-8.014633484E0,2.410437469E0,8.371651708E0
6.541005375E0,-6.593788147E-1,-7.388186188E0,2.579436035E0,7.853251927E0
6.550973375E0,-9.803114319E-1,-6.702312469E0,2.469265137E0,7.209665267E0
6.560942375E0,-1.086590424E0,-5.964496765E0,2.281405792E0,6.477708916E0
6.570910375E0,-1.193468170E0,-5.264103241E0,2.204166412E0,5.830394393E0
6.580879375E0,-1.085991669E0,-4.446802826E0,1.926044769E0,4.966193888E0
6.590847375E0,-1.066981201E0,-3.733087006E0,1.639091492E0,4.214381140E0
6.600816375E0,-8.785231018E-1,-3.078797607E0,1.394949188E0,3.492374663E0
6.610784375E0,-6.408174133E-1,-2.576442261E0,1.221160583E0,2.922316692E0
6.620753375E0,-3.754193115E-1,-2.501298523E0,9.753717041E-1,2.710864054E0
6.630721375E0,4.032614136E-1,-3.121758270E0,4.628375244E-1,3.181542557E0
6.640690375E0,1.680704956E0,-4.630620575E0,-2.603086853E-1,4.933069701E0
6.650658375E0,3.099304962E0,-6.833739166E0,-1.844913483E0,7.727184998E0
6.660627375E0,6.073320465E0,-8.900491333E0,-5.267995148E0,1.199398767E1
6.670595375E0,1.079001205E1,-1.077594131E1,-9.103469238E0,1.776002318E1
6.680564375E0,1.495989075E1,-1.231069977E1,-8.901988220E0,2.132128172E1
6.690532917E0,1.695658859E1,-1.356089996E1,-7.031178589E0,2.282238762E1
6.700501917E0,1.649599640E1,-1.480122070E1,-5.818999329E0,2.291407394E1
6.710469917E0,1.425740158E1,-1.562735275E1,-6.196663971E0,2.204282873E1
6.720438917E0,1.246233444E1,-1.443852493E1,-6.638545074E0,2.019532279E1
6.730406917E0,1.199680252E1,-1.108504852E1,-4.744982758E0,1.700930430E1
6.740375917E0,1.153591095E1,-7.451803894E0,-1.542841644E0,1.381980402E1
6.750343917E0,1.015652939E1,-5.888454895E0,8.247848511E-1,1.176899572E1
6.760312917E0,7.869884491E0,-6.837481384E0,1.256636810E0,1.050073186E1
6.770280917E0,5.126090240E0,-8.385562134E0,4.626878357E-1,9.839132761E0
6.780249917E0,3.097059631E0,-9.383985901E0,-5.694158936E-1,9.898242481E0
6.790217917E0,1.768721924E0,-9.854307861E0,-1.531914368E0,1.012830303E1
6.800186917E0,1.550475769E0,-1.033585648E1,-2.014211426E0,1.064382224E1
6.810154917E0,2.678080902E0,-1.124835892E1,-1.410666504E0,1.164850530E1
6.820123917E0,3.857328644E0,-1.255574020E1,-3.847000122E-2,1.313495627E1
6.830091917E0,3.929927673E0,-1.388063507E1,1.182241516E0,1.447460039E1
6.840060917E0,3.429967346E0,-1.506916351E1,1.961970062E0,1.557862932E1
6.850028917E0,2.514022064E0,-1.555190964E1,2.743794250E0,1.599095392E1
6.859997917E0,9.954299927E-1,-1.475781097E1,3.498973846E0,1.519956195E1
6.869965917E0,5.089416504E-3,-1.293295578E1,3.794609070E0,1.347814635E1
6.879934917E0,-3.227288818E-1,-1.104777603E1,3.604055328E0,1.162526232E1
6.889902917E0,-3.849993896E-1,-9.580976257E0,3.517086182E0,1.021338464E1
6.899871917E0,4.131408691E-2,-8.505762177E0,3.410507812E0,9.164129015E0
6.909839917E0,1.814227295E-1,-7.683971100E0,3.548371124E0,8.465651995E0
6.919808917E0,2.492317200E-1,-7.090006256E0,3.632945251E0,7.970482819E0
6.929776917E0,4.059558105E-1,-6.766678619E0,3.551963654E0,7.653050729E0
6.939745917E0,6.200106812E-1,-6.650071106E0,3.348087616E0,7.471114351E0
6.949713917E0,7.960446167E-1,-6.768923950E0,3.034789124E0,7.460694572E0
6.959682917E0,5.830375671E-1,-7.280260620E0,2.752326508E0,7.804961800E0
6.969650917E0,5.658233643E-1,-7.854915619E0,2.973267059E0,8.417848446E0
6.979619917E0,9.009764099E-1,-8.229885864E0,3.368145905E0,8.937963228E0
6.989587917E0,1.184786224E0,-8.480165405E0,3.404669952E0,9.214591753E0
6.999556917E0,1.335822144E0,-8.599317627E0,3.610042877E0,9.421522914E0
7.009524917E0,1.286275177E0,-8.735534363E0,3.678450623E0,9.565305192E0
7.019493917E0,1.089284821E0,-8.676557007E0,3.520828400E0,9.426845471E0
7.029461917E0,1.249751129E0,-8.563092957E0,3.283272400E0,9.255718044E0
7.039430917E0,1.628014526E0,-8.468190308E0,2.957849121E0,9.116443923E0
7.049398917E0,2.030377808E0,-8.341553650E0,2.347867584E0,8.900361427E0
7.059367917E0,2.449356537E0,-8.343050537E0,1.813329163E0,8.882229583E0
7.069335917E0,2.892135773E0,-8.515192566E0,1.323547668E0,9.089814750E0
7.079304917E0,3.255879364E0,-8.880882111E0,9.211843872E-1,9.503651833E0
7.089272917E0,3.741170197E0,-9.319470062E0,6.628216553E-1,1.006420435E1
7.099240917E0,4.076772308E0,-9.655371552E0,4.791535950E-1,1.049170436E1
7.109209917E0,4.456532593E0,-9.815089417E0,4.158352661E-1,1.078747338E1
7.119178917E0,5.189258881E0,-9.811945953E0,1.404529266E0,1.118818098E1
7.129146917E0,6.774163055E0,-9.575587463E0,2.064656525E0,1.190982649E1
7.139114917E0,7.726482697E0,-8.837023315E0,-1.843416595E0,1.188232724E1
7.149083917E0,7.494016113E0,-8.434809723E0,-5.855822754E0,1.271207901E1
7.159051917E0,6.516548767E0,-8.369096375E0,-7.268884277E0,1.285861037E1
7.169020917E0,5.515280914E0,-8.582552490E0,-5.642067261E0,1.165810678E1
7.178988917E0,5.281916199E0,-8.889414368E0,-2.693798218E0,1.068535799E1
7.188957917E0,5.186714172E0,-9.003626862E0,-3.195854187E-1,1.039564502E1
7.198925917E0,5.085374908E0,-8.813522186E0,1.285526733E0,1.025630490E1
7.208894917E0,4.890779572E0,-8.339907074E0,2.302661591E0,9.938612842E0
7.218862917E0,4.956193542E0,-7.822133789E0,2.488425293E0,9.588633473E0
7.228831917E0,5.210664368E0,-7.770042114E0,1.578317871E0,9.487658558E0
7.238799917E0,5.686225433E0,-8.089328156E0,7.580236816E-1,9.916904234E0
7.248768917E0,6.353837128E0,-8.513845367E0,9.235794067E-2,1.062381001E1
7.258736917E0,7.005731506E0,-8.940757599E0,-5.131329346E-1,1.137016824E1
7.268705917E0,7.872129822E0,-9.191037140E0,-1.053808594E0,1.214726735E1
7.278673917E0,9.081315308E0,-9.028026123E0,-1.070873108E0,1.284999271E1
7.288642917E0,9.904303894E0,-8.682245178E0,-8.011340332E-1,1.319539437E1
7.298610917E0,9.431886292E0,-8.210875397E0,-2.959346008E-1,1.250865824E1
7.308579917E0,8.071215820E0,-7.970924377E0,2.046244812E-1,1.134557321E1
7.318547917E0,7.037016449E0,-8.413254547E0,3.670367432E-1,1.097438693E1
7.328516917E0,6.559210052E0,-9.503587189E0,6.840774536E-2,1.154755756E1
7.338484917E0,6.796316986E0,-1.072863968E1,-7.003935242E-1,1.271944122E1
7.348453917E0,7.378905487E0,-1.158171570E1,-1.965562592E0,1.387255640E1
7.358421917E0,7.708669739E0,-1.172287216E1,-3.631897430E0,1.449275681E1
7.368390917E0,8.050858154E0,-1.092383377E1,-5.028193817E0,1.447166868E1
7.378358917E0,8.616232452E0,-9.626781006E0,-4.987328796E0,1.384874806E1
7.388327917E0,8.872200165E0,-8.689729614E0,-3.113076324E0,1.280306919E1
7.398295917E0,9.443112946E0,-8.124355316E0,-1.169817352E0,1.251183456E1
7.408264917E0,9.991123352E0,-8.045469360E0,3.040177917E-1,1.283138924E1
7.418232917E0,9.640702057E0,-8.747509460E0,1.996398468E0,1.316995310E1
7.428201917E0,8.794511719E0,-1.002944366E1,2.813848572E0,1.363271508E1
7.438169917E0,7.772437134E0,-1.137963593E1,3.122955780E0,1.413010069E1
7.448138917E0,6.462361450E0,-1.277398636E1,3.292403412E0,1.468934182E1
7.458106917E0,5.361400909E0,-1.417432434E1,3.780538330E0,1.561885272E1
7.468075917E0,4.714745636E0,-1.543784683E1,4.566254425E0,1.677517871E1
7.478043917E0,4.204756165E0,-1.663371002E1,5.368735657E0,1.797730809E1
7.488012917E0,3.782933350E0,-1.743559250E1,6.008355560E0,1.882580163E1
7.497980917E0,3.729644165E0,-1.748439102E1,6.326444092E0,1.896412587E1
7.507949917E0,3.811224518E0,-1.693712906E1,5.981411591E0,1.836216375E1
7.517917917E0,4.323010254E0,-1.551733154E1,4.423152008E0,1.670449848E1
7.527886917E0,4.129762115E0,-1.367226837E1,2.298769684E0,1.446617433E1
7.537854917E0,3.442840576E0,-1.183992874E1,8.460406494E-1,1.235932234E1
7.547823917E0,2.658771057E0,-1.016685791E1,8.882528687E-1,1.054623423E1
7.557791917E0,1.527124329E0,-8.968749390E0,1.979783020E0,9.310752662E0
7.567760917E0,1.205143890E0,-7.494465179E0,2.684218140E0,8.051360577E0
7.577728917E0,6.002517700E-1,-6.264173584E0,2.204914856E0,6.667969886E0
7.587697917E0,1.249900818E-1,-5.498066711E0,1.274150391E0,5.645158926E0
7.597665917E0,1.968406677E-1,-5.298980713E0,5.917195129E-1,5.335548222E0
7.607634917E0,2.939886475E-1,-5.732479248E0,6.851252747E-1,5.780756378E0
7.617602917E0,9.116043091E-2,-6.308481445E0,1.356479187E0,6.453315749E0
7.627571917E0,8.382568359E-2,-6.605912933E0,1.986519012E0,6.898649883E0
7.637539917E0,2.351609802E-1,-6.848408661E0,2.493514709E0,7.292024237E0
7.647508917E0,3.212319946E-1,-6.941664734E0,2.423610077E0,7.359604954E0
7.657476917E0,5.071453857E-1,-6.988517303E0,2.360740814E0,7.393893949E0
7.667445917E0,5.782475281E-1,-7.169341278E0,2.393073578E0,7.580278736E0
7.677413917E0,-3.586541748E-1,-7.429200897E0,2.204765167E0,7.757747626E0
7.687383500E0,-1.442550201E0,-7.525600433E0,1.974843292E0,7.913003159E0
7.697351500E0,-2.197729797E0,-7.500003662E0,2.281405792E0,8.141552897E0
7.707320500E0,-2.387984161E0,-7.084318085E0,2.313888245E0,7.825861607E0
7.717288500E0,-2.409090271E0,-6.467750244E0,1.619332581E0,7.089269861E0
7.727257500E0,-2.550695801E0,-5.849835205E0,7.664062500E-2,6.382201405E0
7.737225500E0,-2.922372894E0,-5.397475891E0,-2.392923889E0,6.587798879E0
7.747194500E0,-3.325484619E0,-5.137017517E0,-5.894143066E0,8.496394495E0
7.757162500E0,-3.079246674E0,-5.292843475E0,-8.259374542E0,1.028169344E1
7.767130500E0,-2.158511353E-1,-6.623426514E0,-7.244634705E0,9.818406311E0
7.777099500E0,4.949607239E0,-8.411308594E0,-5.667514343E0,1.128580714E1
7.787068500E0,8.272996216E0,-9.884844360E0,-5.210963745E0,1.390348005E1
7.797036500E0,9.787546692E0,-1.158830200E1,-5.241200867E0,1.604852018E1
7.807004500E0,9.872569885E0,-1.262220200E1,-4.785398712E0,1.672386499E1
7.816973500E0,9.514514465E0,-1.223420883E1,-3.863615570E0,1.597276985E1
7.826941500E0,8.331374817E0,-1.150687134E1,-2.930905151E0,1.450551962E1
7.836910500E0,6.675667877E0,-1.093640762E1,-2.108365631E0,1.298517458E1
7.846878500E0,5.189258881E0,-1.023781036E1,-2.272274780E0,1.170061543E1
7.856847500E0,5.035079498E0,-9.504934387E0,-7.836204529E-1,1.078470511E1
7.866815500E0,6.343059540E0,-8.526868286E0,1.333876190E0,1.071079422E1
7.876784500E0,7.760312347E0,-7.984695740E0,2.339934082E0,1.137774606E1
7.886752500E0,9.038055267E0,-8.519084473E0,2.658920746E0,1.270161812E1
7.896721500E0,9.809850311E0,-1.004620880E1,2.944676514E0,1.434679735E1
7.906689500E0,8.536448364E0,-1.216789673E1,2.606679382E0,1.509050824E1
7.916658500E0,6.493796082E0,-1.410546753E1,8.542735291E-1,1.555195759E1
7.926626500E0,4.749174042E0,-1.510913040E1,-8.894503784E-1,1.586290004E1
7.936595500E0,2.705773315E0,-1.504790771E1,-2.383942566E0,1.547397551E1
7.946563500E0,5.287005615E-1,-1.429392563E1,-2.838247833E0,1.458257470E1
7.956532500E0,-8.400531006E-1,-1.337723190E1,-8.605604553E-1,1.343117965E1
7.966500500E0,-1.038091278E0,-1.227761856E1,1.252445526E0,1.238491707E1
7.976469500E0,-9.497749329E-1,-1.094164673E1,1.835483093E0,1.113511130E1
7.986437500E0,-3.492237854E-1,-9.512867889E0,1.590592346E0,9.651248455E0
7.996406500E0,1.859133911E-1,-8.418942719E0,2.130369873E0,8.686290122E0
8.006374500E0,2.092648315E-1,-7.841593323E0,3.294499054E0,8.508119747E0
8.016343500E0,2.562670898E-1,-7.286846924E0,4.061204681E0,8.346088568E0
8.026311500E0,9.325607300E-1,-6.784341888E0,4.400249634E0,8.139973047E0
8.036280500E0,1.944606171E0,-6.535559235E0,4.937931519E0,8.418918894E0
8.046248500E0,2.266736298E0,-6.641987915E0,5.558241577E0,8.952549711E0
8.056217500E0,2.349364471E0,-7.000642090E0,5.388045502E0,9.141090603E0
8.066185500E0,2.131866760E0,-7.530390472E0,5.212610321E0,9.403347431E0
8.076154500E0,1.832788696E0,-7.903863831E0,4.859494629E0,9.457529588E0
8.086122500E0,1.597627716E0,-8.142168274E0,4.379592590E0,9.382331788E0
8.096091500E0,1.197958832E0,-8.298143921E0,3.801195374E0,9.205616990E0
8.106059500E0,1.158141632E0,-8.241711273E0,3.468137970E0,9.016378304E0
8.116028500E0,1.486109619E0,-8.315657501E0,3.027154999E0,8.973424590E0
8.125996500E0,1.868713989E0,-8.637488251E0,2.356699219E0,9.146164577E0
8.135965500E0,2.156565399E0,-9.241781616E0,1.641636200E0,9.631005720E0
8.145933500E0,2.428100739E0,-9.731712799E0,1.370400238E0,1.012323585E1
8.155902500E0,3.016676788E0,-1.078821579E1,-1.575024719E0,1.131223416E1
8.165870500E0,3.402574310E0,-1.138891663E1,-7.440427551E0,1.402301309E1
8.175839500E0,3.554807739E0,-1.045635590E1,-9.897118835E0,1.482986844E1
8.185807500E0,3.579656067E0,-9.734407196E0,-7.244335327E0,1.265120608E1
8.195776500E0,3.343447266E0,-9.168583832E0,-3.342698822E0,1.031577455E1
8.205744500E0,3.321443024E0,-8.933572540E0,-4.682263184E-1,9.542533101E0
8.215713500E0,2.767445068E0,-8.840466156E0,1.294058990E0,9.353458330E0
8.225681500E0,2.298320618E0,-8.595874786E0,2.336790619E0,9.199561479E0
8.235650500E0,2.395618286E0,-8.218659210E0,3.002007294E0,9.071791112E0
8.245618500E0,2.871329041E0,-7.968229980E0,3.402274933E0,9.127578770E0
8.255587500E0,3.560495911E0,-7.965385895E0,3.412304077E0,9.368474940E0
8.265555500E0,4.201463013E0,-8.312214661E0,2.777923279E0,9.719159519E0
8.275524500E0,4.649331665E0,-8.735234985E0,1.882335663E0,1.007292424E1
8.285492500E0,4.961732025E0,-9.152118073E0,1.083147583E0,1.046676925E1
8.295461500E0,5.080584869E0,-9.543853455E0,3.697311401E-1,1.081823380E1
8.305429500E0,5.155578918E0,-9.837692413E0,-5.948629761E-1,1.112268169E1
8.315398500E0,5.582940216E0,-9.926607513E0,-1.717528381E0,1.151766738E1
8.325366500E0,6.172713776E0,-9.716594238E0,-2.413880310E0,1.176186282E1
8.335335500E0,6.466702423E0,-9.467063141E0,-2.446662140E0,1.172304058E1
8.345303500E0,6.580316162E0,-9.476942596E0,-1.904190216E0,1.169354275E1
8.355272500E0,6.660100250E0,-9.702523499E0,-1.266216888E0,1.183635091E1
8.365240500E0,6.835086365E0,-1.009006760E1,-7.592211914E-1,1.221082661E1
8.375209500E0,7.298223267E0,-1.035935760E1,-5.981561279E-1,1.268613982E1
8.385177500E0,8.051157532E0,-1.027388535E1,-1.046174469E0,1.309459196E1
8.395146500E0,8.652008057E0,-9.855655060E0,-2.372266846E0,1.332737146E1
8.405114500E0,8.928034058E0,-9.493408356E0,-4.299209747E0,1.372289324E1
8.415083500E0,9.382788391E0,-9.458381195E0,-6.316265259E0,1.474424971E1
8.425051500E0,9.803862762E0,-9.792187042E0,-7.478747864E0,1.574593032E1
8.435020500E0,9.665849762E0,-1.038869659E1,-5.966442719E0,1.539324876E1
8.444988500E0,9.037157135E0,-1.067654800E1,-3.336561584E0,1.438024790E1
8.454957500E0,8.652756500E0,-1.040606049E1,-1.486708374E0,1.361494002E1
8.464925500E0,8.701105957E0,-9.877060547E0,-1.462458801E-1,1.316385042E1
8.474894500E0,9.177415466E0,-9.524393921E0,1.045725403E0,1.326772685E1
8.484862500E0,9.982591095E0,-9.716743927E0,2.063908081E0,1.408286029E1
8.494831500E0,1.057835220E1,-1.056053925E1,2.772235107E0,1.520236205E1
8.504799500E0,1.083387085E1,-1.164518372E1,3.160976715E0,1.621649886E1
8.514768500E0,1.059960800E1,-1.290646088E1,3.471281433E0,1.705808362E1
8.524736500E0,9.691296844E0,-1.451845871E1,4.552033997E0,1.803962004E1
8.534704500E0,8.627758484E0,-1.580144073E1,7.262148285E0,1.941294783E1
8.544673500E0,7.383545837E0,-1.665346893E1,7.386090546E0,1.965729153E1
8.554642500E0,6.269712067E0,-1.680615143E1,7.739655304E0,1.953607636E1
8.564610500E0,6.193969574E0,-1.635424118E1,9.119785309E0,1.972300555E1
8.574578500E0,5.878725128E0,-1.563154404E1,9.216035156E0,1.907458734E1
8.584547500E0,5.247487793E0,-1.467862564E1,8.762328644E0,1.788229801E1
8.594515500E0,4.955594788E0,-1.310884003E1,7.370522919E0,1.583427342E1
8.604484500E0,4.773423615E0,-1.095571747E1,5.215454407E0,1.303895252E1
8.614452500E0,3.909570007E0,-8.956774292E0,3.216960297E0,1.028870142E1
8.624421500E0,2.944676514E0,-7.455546112E0,1.885928192E0,8.234865679E0
8.634389500E0,1.781595154E0,-6.361321564E0,8.060737610E-1,6.655091903E0
8.644358500E0,7.141648865E-1,-5.716013489E0,3.842509460E-1,5.773256488E0
8.654326500E0,-1.197509766E-1,-5.660778351E0,7.173083496E-1,5.707300860E0
8.664295500E0,-7.774832153E-1,-6.040688324E0,1.637295227E0,6.306752828E0
8.674263500E0,-9.782157898E-1,-6.825206909E0,2.827619934E0,7.452233892E0
8.684232500E0,-8.807684326E-1,-7.498207397E0,3.729943542E0,8.420887485E0
8.694200167E0,-6.403683472E-1,-7.921527100E0,4.502187653E0,9.134021944E0
8.704169167E0,-3.559597778E-1,-7.904761963E0,4.974156189E0,9.346346818E0
8.714137167E0,1.766326904E-2,-7.749385071E0,4.838089142E0,9.135665685E0
8.724106167E0,5.857319641E-1,-7.371121674E0,4.270170135E0,8.538786193E0
8.734074167E0,5.935157776E-1,-7.194488983E0,3.984114990E0,8.245368698E0
8.744043167E0,4.656816101E-1,-7.309749298E0,3.607647858E0,8.164828059E0
8.754011167E0,-1.279838562E-1,-7.632328491E0,2.873574371E0,8.156362408E0
8.763980167E0,-1.486858063E0,-7.885152740E0,1.894460449E0,8.244717159E0
8.773948167E0,-2.449506226E0,-7.867040405E0,7.488926697E-1,8.273526800E0
8.783917167E0,-2.852019196E0,-7.698939972E0,-2.803669739E-1,8.215004311E0
8.793885167E0,-3.045866089E0,-7.507937164E0,-1.472787323E0,8.235018105E0
8.803854167E0,-2.914738770E0,-7.249275055E0,-3.837420044E0,8.704796581E0
8.813822167E0,-2.599194946E0,-7.115752716E0,-7.233557739E0,1.047445028E1
8.823791167E0,-1.222807159E0,-7.199728088E0,-9.543105011E0,1.201674645E1
8.833759167E0,1.388362885E0,-7.141648865E0,-7.477849731E0,1.043306938E1
8.843728167E0,2.953957214E0,-7.664511566E0,-6.867269440E0,1.070653961E1
8.853696167E0,3.561693420E0,-8.761879578E0,-4.153412933E0,1.032990962E1
8.863665167E0,4.008214874E0,-9.214987335E0,-3.611539764E0,1.067824880E1
8.873633167E0,4.329147491E0,-9.323361969E0,-4.809049530E0,1.134872476E1
8.883602167E0,4.726271667E0,-9.308991852E0,-4.971012726E0,1.156312850E1
8.893570167E0,5.853577423E0,-8.978179779E0,-3.720513153E0,1.134523243E1
8.903539167E0,7.194189606E0,-8.641529846E0,-1.871408386E0,1.139888466E1
8.913507167E0,8.980724487E0,-8.437354431E0,-7.297325134E-1,1.234402170E1
8.923476167E0,1.093221634E1,-8.343948669E0,-1.156794434E0,1.380119585E1
8.933444167E0,1.122051682E1,-8.057444458E0,-2.473905487E0,1.403362452E1
8.943413167E0,1.013093262E1,-7.905809784E0,-2.163600769E0,1.303145396E1
8.953381167E0,8.998238068E0,-7.747738495E0,6.322851562E-1,1.189098501E1
8.963350167E0,8.912616119E0,-6.851552124E0,3.830983429E0,1.187665469E1
8.973318167E0,8.340505829E0,-6.792125702E0,4.151466980E0,1.152960048E1
8.983287167E0,6.858288116E0,-8.195906525E0,3.101400604E0,1.112778888E1
8.993255167E0,6.145769806E0,-1.062625259E1,2.589914246E0,1.254573180E1
9.003224167E0,6.248605957E0,-1.417462372E1,-1.826202393E-1,1.549188123E1
9.013192167E0,4.928650818E0,-1.746523087E1,-9.516310730E0,2.049112144E1
9.023161167E0,2.702779541E0,-1.783436325E1,-9.882748718E0,2.056789372E1
9.033129167E0,1.429078217E0,-1.633238663E1,-2.494562531E0,1.658348455E1
9.043098167E0,-1.425036621E-1,-1.504147110E1,2.121238861E0,1.519097806E1
9.053066167E0,-1.910626831E0,-1.378528336E1,4.235142975E0,1.454719795E1
9.063035167E0,-2.478545837E0,-1.197898956E1,4.449347534E0,1.301676127E1
9.073003167E0,-2.253264313E0,-1.034438873E1,4.126618652E0,1.136277078E1
9.082972167E0,-2.389331360E0,-9.229956207E0,4.094734955E0,1.037631198E1
9.092940167E0,-2.497256927E0,-8.541986847E0,4.133204956E0,9.812502976E0
9.102909167E0,-1.742825775E0,-7.480693817E0,3.563938751E0,8.467578231E0
9.112877167E0,-7.053332520E-1,-6.262527008E0,3.566184082E0,7.241160710E0
9.122846167E0,-3.998185730E-1,-5.712870026E0,4.275409241E0,7.146737927E0
9.132814167E0,-1.052311707E-1,-5.863007812E0,4.677622833E0,7.501072562E0
9.142783167E0,2.320175171E-1,-6.569688263E0,4.848417664E0,8.168340703E0
9.152751167E0,1.616638184E-2,-7.675588531E0,4.806654510E0,9.056425798E0
9.162720167E0,6.586303711E-3,-8.397986298E0,4.652924194E0,9.600829172E0
9.172688167E0,1.721420288E-2,-8.983867950E0,4.323609009E0,9.970144158E0
9.182657167E0,-2.888992310E-2,-9.651030579E0,4.079915771E0,1.047802169E1
9.192625167E0,1.706451416E-2,-9.920619965E0,3.682941284E0,1.058220432E1
9.202594167E0,3.353027344E-1,-9.934241638E0,2.928809509E0,1.036240850E1
9.212562167E0,8.482859802E-1,-9.784552917E0,2.490820312E0,1.013218884E1
9.222531167E0,1.325942688E0,-9.566905518E0,2.069147186E0,9.877508556E0
9.232499167E0,1.925595703E0,-9.484576721E0,1.540746002E0,9.799949624E0
9.242468167E0,2.369422760E0,-9.525890808E0,6.962022400E-1,9.840805732E0
9.252436167E0,3.301384735E0,-9.470356293E0,-7.216493225E-1,1.005522587E1
9.262405167E0,5.901178436E0,-9.951455841E0,-5.235662384E0,1.269911575E1
9.272373167E0,7.060966644E0,-1.024948608E1,-8.296946411E0,1.495822632E1
9.282342167E0,6.566245422E0,-1.012569351E1,-7.162754974E0,1.403389849E1
9.292310167E0,5.307512970E0,-9.822723541E0,-4.158951416E0,1.191438075E1
9.302279167E0,3.939807129E0,-9.416618042E0,-1.600771179E0,1.033233971E1
9.312247167E0,2.965333557E0,-8.963959351E0,-1.305285645E-1,9.442605999E0
9.322216167E0,2.382146301E0,-8.456514587E0,1.061293030E0,8.849497323E0
9.332184167E0,2.048041077E0,-8.025111694E0,1.837878113E0,8.483789596E0
9.342153167E0,1.828896790E0,-7.709717560E0,2.291434937E0,8.248350283E0
9.352121167E0,1.981130219E0,-7.728278961E0,2.715652771E0,8.427689044E0
9.362090167E0,2.317780151E0,-8.118667145E0,3.119363251E0,9.000849300E0
9.372058167E0,2.890788574E0,-8.650211792E0,3.306773529E0,9.701421226E0
9.382027167E0,3.372786255E0,-9.164392548E0,3.160827026E0,1.026414173E1
9.391995167E0,3.455713806E0,-9.673783264E0,2.852168884E0,1.066109318E1
9.401964167E0,3.339854736E0,-1.019050873E1,2.314936066E0,1.097087174E1
9.411932167E0,3.384162598E0,-1.055305481E1,1.599873047E0,1.119728164E1
9.421901167E0,3.744762726E0,-1.054227722E1,6.691085815E-1,1.120761184E1
9.431869167E0,4.331692200E0,-1.017239639E1,-5.650749207E-1,1.107070528E1
9.441838167E0,5.075046387E0,-9.806108093E0,-2.042502594E0,1.122887655E1
9.451806167E0,6.255641327E0,-9.709109802E0,-3.144960022E0,1.197040664E1
9.461775167E0,7.807464294E0,-1.002195923E1,-3.134332123E0,1.308511381E1
9.471743167E0,8.750353546E0,-1.057371185E1,-2.237097931E0,1.390599427E1
9.481712167E0,9.013656006E0,-1.090317673E1,-1.567540283E0,1.423314582E1
9.491680167E0,9.091194763E0,-1.087713089E1,-1.617985382E0,1.426813496E1
9.501649167E0,9.403295746E0,-1.048165329E1,-2.363734589E0,1.427845467E1
9.511617167E0,9.873168640E0,-9.861193542E0,-3.335663452E0,1.434744743E1
9.521586167E0,1.009830048E1,-9.068891144E0,-4.187691650E0,1.420412688E1
9.531554167E0,9.933193817E0,-8.586444397E0,-4.674030304E0,1.393707021E1
9.541523167E0,9.660161591E0,-8.692274323E0,-4.088897095E0,1.362326812E1
9.551491167E0,9.732610931E0,-9.351353760E0,-2.414329376E0,1.371132813E1
9.561460167E0,9.861343231E0,-9.830507355E0,-1.412612457E0,1.399572932E1
9.571428167E0,9.962233429E0,-9.799072723E0,-1.285227356E0,1.403280907E1
9.581397167E0,1.015413437E1,-9.484277344E0,-1.047072601E0,1.393392703E1
9.591365167E0,1.056053925E1,-9.603878632E0,4.685256958E-2,1.427451117E1
9.601334167E0,1.140553207E1,-1.015578094E1,1.213825836E0,1.531990280E1
9.611302167E0,1.162258072E1,-1.093910202E1,2.026785278E0,1.608900849E1
9.621271167E0,1.071232361E1,-1.185429886E1,2.490970001E0,1.617044248E1
9.631239167E0,9.062903595E0,-1.281545013E1,2.692301331E0,1.592546609E1
9.641208167E0,7.510332184E0,-1.376702133E1,3.536096649E0,1.607606747E1
9.651176167E0,6.091582489E0,-1.485031860E1,5.133125610E0,1.685195295E1
9.661145167E0,4.358187103E0,-1.595621887E1,6.394702148E0,1.773377938E1
9.671113167E0,2.887046356E0,-1.658176804E1,7.244485016E0,1.832409973E1
9.681082167E0,1.942959595E0,-1.680510361E1,7.767198029E0,1.861493928E1
9.691050250E0,2.256557465E0,-1.659658722E1,7.818391571E0,1.848420963E1
9.701019250E0,3.196752319E0,-1.548320251E1,7.052434387E0,1.731143022E1
9.710987250E0,3.884571991E0,-1.355236771E1,5.466931458E0,1.512097581E1
9.720956250E0,4.073030090E0,-1.106603806E1,3.554059296E0,1.231576672E1
9.730924250E0,3.806434479E0,-8.600365448E0,2.071542206E0,9.630499280E0
9.740893250E0,2.567610626E0,-6.831643524E0,1.363215179E0,7.424441608E0
9.750861250E0,1.300196228E0,-5.556445312E0,1.695973206E0,5.953227684E0
9.760830250E0,5.852828979E-2,-5.187163239E0,2.100432129E0,5.596597462E0
9.770798250E0,-1.300944672E0,-5.305716705E0,2.542911987E0,6.025735488E0
9.780767250E0,-1.808688812E0,-6.027665405E0,2.928360443E0,6.941138260E0
9.790735250E0,-1.532213745E0,-7.106472015E0,3.759132843E0,8.184173947E0
9.800704250E0,-1.324146423E0,-8.113727417E0,4.458179169E0,9.352074521E0
9.810672250E0,-1.171613617E0,-8.841364288E0,4.702920227E0,1.008265142E1
9.820641250E0,-8.207432556E-1,-9.104067993E0,4.542154541E0,1.020729354E1
9.830609250E0,-5.918692017E-1,-8.850644989E0,3.824546814E0,9.659781789E0
9.840578250E0,1.190025330E-1,-8.240513763E0,2.758763123E0,8.690857418E0
9.850546250E0,8.726852417E-1,-7.727979584E0,1.425485687E0,7.906659056E0
9.860515250E0,1.113384705E0,-7.629035339E0,6.360273743E-1,7.736041399E0
9.870483250E0,4.029620361E-1,-8.035589905E0,4.803511047E-1,8.060013691E0
9.880452250E0,-1.347497864E0,-8.256979523E0,7.458988953E-1,8.399394412E0
9.890420250E0,-2.658621368E0,-8.034691772E0,8.948391724E-1,8.510304143E0
9.900389250E0,-2.984942780E0,-7.414830780E0,8.982820129E-1,8.043414043E0
9.910357250E0,-2.751278687E0,-6.718778229E0,7.628137207E-1,7.300232878E0
9.920326250E0,-2.323767700E0,-5.903423767E0,3.279679871E-1,6.352784547E0
9.930294250E0,-1.934427338E0,-5.189408569E0,-4.138893127E-1,5.553672189E0
9.940263250E0,-1.660047913E0,-4.613705750E0,-1.279389496E0,5.067433009E0
9.950231250E0,-1.568737793E0,-4.585115204E0,-3.653901672E0,6.069202347E0
9.960200250E0,-1.044976959E0,-5.363197174E0,-7.603288879E0,9.363004996E0
9.970168250E0,8.457412720E-2,-6.562503204E0,-8.844956818E0,1.101393945E1
9.980137250E0,1.748963013E0,-7.532336426E0,-7.435338135E0,1.072749816E1
9.990105250E0,3.929628296E0,-8.066725159E0,-5.756429443E0,1.066069947E1
1.000007425E1,6.171965332E0,-8.475974121E0,-4.784350891E0,1.152498620E1
1.001004225E1,8.533005524E0,-8.676706696E0,-4.394262085E0,1.293858422E1
1.002001125E1,1.071651489E1,-8.857979736E0,-3.921844482E0,1.444605000E1
1.002997925E1,1.158964920E1,-9.269024963E0,-3.027903442E0,1.514605532E1
1.003994825E1,1.099074463E1,-9.809401245E0,-2.588716736E0,1.495734852E1
1.004991625E1,9.551487579E0,-1.023601410E1,-4.026177521E0,1.456766986E1
1.005988525E1,7.992329865E0,-1.052446426E1,-4.343667297E0,1.391075592E1
1.006985325E1,7.955057373E0,-1.165775757E1,-1.104702759E0,1.415650442E1
1.007982225E1,9.179361420E0,-1.310210403E1,7.581733704E-1,1.601563714E1
1.008979025E1,9.473200378E0,-1.417582123E1,1.152752838E0,1.708871768E1
1.009975925E1,9.668095093E0,-1.526330978E1,4.665797424E-1,1.807369317E1
1.010972725E1,8.611741791E0,-1.660871201E1,-8.225395203E-1,1.872666501E1
1.011969625E1,5.889652405E0,-1.639735153E1,-1.382674713E0,1.747778396E1
1.012966425E1,2.622845764E0,-1.474763214E1,1.127754822E0,1.502144482E1
1.013963325E1,8.234376526E-1,-1.296274384E1,3.410358124E0,1.342912208E1
1.014960125E1,1.621128845E-1,-1.123982666E1,4.552932129E0,1.212803261E1
1.015957025E1,-1.033450928E0,-1.013048355E1,5.256768494E0,1.145985745E1
1.016953825E1,-1.934726715E0,-9.640702057E0,5.233417053E0,1.113889392E1
1.017950725E1,-1.556613007E0,-9.379345551E0,5.251080322E0,1.086135404E1
1.018947525E1,-1.609902191E0,-9.369765472E0,6.299200745E0,1.140457014E1
1.019944425E1,-1.995350647E0,-8.972341919E0,6.298302612E0,1.114239469E1
1.020941225E1,-1.499431915E0,-8.036637726E0,5.292693787E0,9.739016866E0
1.021938125E1,-9.770182800E-1,-7.442373505E0,4.836592255E0,8.929507979E0
1.022934925E1,-8.705895996E-1,-7.402256927E0,3.927532654E0,8.424775761E0
1.023931825E1,-6.899153137E-1,-7.570207672E0,3.041525116E0,8.187484496E0
1.024928625E1,-4.683760071E-1,-7.673193512E0,2.606978760E0,8.117488097E0
1.025925525E1,-5.412744141E-1,-7.565118256E0,2.681823120E0,8.044635943E0
1.026922325E1,-8.093669128E-1,-7.720495148E0,3.036286011E0,8.335475563E0
1.027919225E1,-1.146465912E0,-8.314459991E0,3.139720917E0,8.961164906E0
1.028916025E1,-1.239422607E0,-9.061107330E0,3.069067841E0,9.646709898E0
1.029912925E1,-7.957452393E-1,-9.707612915E0,3.008743286E0,1.019428738E1
1.030909725E1,-9.759704590E-2,-1.005848328E1,2.878364410E0,1.046267617E1
1.031906625E1,7.634124756E-1,-1.018556900E1,2.488275604E0,1.051285546E1
1.032903425E1,1.559157715E0,-1.015413437E1,1.981878662E0,1.046256472E1
1.033900325E1,2.231409760E0,-9.840686188E0,1.753603363E0,1.024174882E1
1.034897125E1,2.699935455E0,-9.415270844E0,1.450034637E0,9.901493674E0
1.035894025E1,3.151845703E0,-9.131311340E0,9.630972290E-1,9.707859414E0
1.036890825E1,3.603606262E0,-9.262887726E0,1.802252197E-1,9.940802193E0
1.037887725E1,5.429509277E0,-9.364077301E0,-7.544311523E-1,1.085056132E1
1.038884525E1,7.219037933E0,-9.437574463E0,-1.318907318E0,1.195499213E1
1.039881425E1,6.942862244E0,-9.328152008E0,-1.825154572E0,1.177068160E1
1.040878225E1,6.142027588E0,-9.096882935E0,-1.817819824E0,1.112574721E1
1.041875125E1,5.002746735E0,-9.013206940E0,-1.379830627E0,1.040044743E1
1.042871925E1,4.281845856E0,-8.800798645E0,-7.056326294E-1,9.812552070E0
1.043868825E1,3.823199615E0,-8.468639374E0,-1.459465027E-1,9.292793365E0
1.044865625E1,3.428021393E0,-8.119116211E0,3.951782227E-1,8.821992096E0
1.045862525E1,3.377875671E0,-7.842491455E0,5.950126648E-1,8.559717072E0
1.046859325E1,3.788920898E0,-7.690856781E0,6.578819275E-1,8.598721314E0
1.047856225E1,4.578678589E0,-7.946076050E0,1.064137115E0,9.232378351E0
1.048853025E1,5.503605194E0,-8.585546265E0,1.446142731E0,1.030012639E1
1.049849925E1,6.055956573E0,-9.189390564E0,1.390009460E0,1.109286416E1
1.050846725E1,6.069578247E0,-9.404642944E0,5.774990845E-1,1.120805934E1
1.051843625E1,5.909261627E0,-9.208999786E0,-1.086889801E0,1.099574370E1
1.052840425E1,6.047424316E0,-8.779393158E0,-2.849175110E0,1.103480330E1
1.053837325E1,6.309828644E0,-8.488248596E0,-3.850442963E0,1.125567469E1
1.054834125E1,6.428232422E0,-8.406518555E0,-3.580703888E0,1.117198132E1
1.055831025E1,6.401587830E0,-8.571026459E0,-2.479743347E0,1.098143653E1
1.056827825E1,6.619384918E0,-9.108259277E0,-1.340462494E0,1.133902480E1
1.057824725E1,7.128476257E0,-9.736802216E0,-3.954776001E-1,1.207381024E1
1.058821525E1,7.579937439E0,-1.012868729E1,2.993774414E-2,1.265095467E1
1.059818425E1,7.619455261E0,-1.030442184E1,-2.585124207E-1,1.281811362E1
1.060815225E1,7.266788635E0,-1.008976822E1,-1.446741486E0,1.251809493E1
1.061812125E1,6.849456482E0,-9.622889099E0,-3.353775787E0,1.227855288E1
1.062808925E1,7.105124817E0,-9.249266052E0,-6.036946106E0,1.313302857E1
1.063805825E1,8.266858978E0,-9.321565704E0,-9.733209686E0,1.581037366E1
1.064802625E1,8.644523621E0,-9.789492645E0,-8.780440979E0,1.573715663E1
1.065799525E1,7.965086517E0,-9.988878021E0,-3.690126343E0,1.329801939E1
1.066796325E1,8.114475861E0,-9.714947662E0,-9.451345825E-1,1.269323465E1
1.067793225E1,8.468040619E0,-9.840985565E0,4.418811035E-1,1.299030283E1
1.068789938E1,8.864566040E0,-1.046189438E1,1.301543427E0,1.377409817E1
1.069786838E1,9.707762604E0,-1.153082153E1,1.804048462E0,1.518074737E1
1.070783638E1,1.056577835E1,-1.308938049E1,2.190993805E0,1.696372623E1
1.071780537E1,1.069900131E1,-1.512125519E1,2.559228058E0,1.869948223E1
1.072777337E1,1.017598892E1,-1.701466782E1,3.022364960E0,2.005453468E1
1.073774238E1,8.522078247E0,-1.838162521E1,3.785777435E0,2.061169750E1
1.074771038E1,6.295608215E0,-1.916389847E1,4.568050690E0,2.068228165E1
1.075767937E1,4.644990692E0,-1.934532120E1,5.035528564E0,2.052252272E1
1.076764737E1,4.179309082E0,-1.919084244E1,5.590574341E0,2.042081241E1
1.077761638E1,4.176614685E0,-1.875435013E1,5.903274078E0,2.010020905E1
1.078758438E1,3.519780579E0,-1.785457123E1,6.249504089E0,1.924138432E1
1.079755337E1,2.718796234E0,-1.581117050E1,5.723647614E0,1.703364634E1
1.080752137E1,2.606679382E0,-1.302980438E1,4.158502350E0,1.392349530E1
1.081749038E1,2.175575867E0,-1.035337006E1,2.784359894E0,1.093974688E1
1.082745838E1,1.738933868E0,-8.137378235E0,1.478475494E0,8.451432146E0
1.083742737E1,1.239871674E0,-6.106850739E0,8.490344238E-1,6.289019571E0
1.084739537E1,4.839436340E-1,-4.715194702E0,4.447251892E-1,4.760781765E0
1.085736438E1,1.977388000E-1,-3.929478607E0,2.917433167E-1,3.945252453E0
1.086733238E1,1.601669312E-1,-3.759432220E0,8.939410400E-1,3.867572191E0
1.087730137E1,7.155120850E-2,-4.224066010E0,2.060764618E0,4.700489766E0
1.088726937E1,2.230361938E-2,-5.091661835E0,3.258873138E0,6.045309903E0
1.089723838E1,6.915618896E-2,-5.724545746E0,3.877386932E0,6.914429550E0
1.090720638E1,-1.526824951E-1,-5.976621552E0,4.013004913E0,7.200522589E0
1.091717537E1,-6.601272583E-2,-6.127507782E0,3.896846466E0,7.261964037E0
1.092714337E1,-1.691482544E-1,-6.311175842E0,3.458857269E0,7.198836382E0
1.093711238E1,-6.279441833E-1,-6.549929352E0,3.109483795E0,7.277690422E0
1.094708038E1,-1.423988800E0,-6.640041962E0,2.859054565E0,7.368316929E0
1.095704937E1,-2.134261780E0,-6.439159698E0,2.826871490E0,7.349085208E0
1.096701737E1,-2.398162994E0,-6.006858673E0,2.708767090E0,7.012200511E0
1.097698638E1,-2.679428101E0,-5.640570374E0,2.634521484E0,6.777615549E0
1.098695438E1,-2.787952423E0,-5.224884796E0,2.179318085E0,6.310430030E0
1.099692337E1,-2.898123322E0,-4.894372101E0,1.254092102E0,5.824666862E0
1.100689238E1,-2.960543518E0,-4.505630493E0,2.062710571E-1,5.395189692E0
1.101686038E1,-3.057841187E0,-4.239783325E0,-1.103954315E0,5.342739980E0
1.102682937E1,-3.142565002E0,-4.139641571E0,-2.307301941E0,5.686474248E0
1.103679737E1,-3.101400604E0,-4.261188812E0,-3.426973572E0,6.286538289E0
1.104676638E1,-2.521805878E0,-4.792733459E0,-3.507057037E0,6.452073152E0
1.105673438E1,-1.501228180E0,-5.954916687E0,-3.036435699E0,6.850887574E0
1.106670337E1,3.309617615E-1,-7.411537628E0,-3.679049377E0,8.281052471E0
1.107667137E1,3.191213837E0,-8.735833740E0,-5.689368896E0,1.090263983E1
1.108664038E1,6.298003235E0,-1.010997620E1,-6.999294891E0,1.381544760E1
1.109660838E1,8.539741516E0,-1.126437561E1,-4.420307922E0,1.481055249E1
1.110657737E1,1.038300842E1,-1.165326691E1,-2.068398743E0,1.574432491E1
1.111654537E1,1.186732178E1,-1.191237808E1,-1.145717468E0,1.685380510E1
1.112651438E1,1.265797760E1,-1.193138855E1,-2.478845215E0,1.757063184E1
1.113648238E1,1.313099396E1,-1.183918030E1,-7.598798218E0,1.924398417E1
1.114645137E1,1.208736420E1,-1.209170517E1,-1.159668457E1,2.065906097E1
1.115641937E1,8.181237030E0,-1.373154510E1,-1.001806732E1,1.886397740E1
1.116638838E1,7.225025482E0,-1.490136246E1,-4.801714783E0,1.724262338E1
1.117635638E1,1.012539413E1,-1.565384766E1,1.066981201E0,1.867364457E1
1.118632537E1,1.308953018E1,-1.540311905E1,4.421056366E0,2.069148656E1
1.119629337E1,1.400337982E1,-1.447145645E1,2.874472504E0,2.034159016E1
1.120626238E1,1.242566071E1,-1.399963760E1,-1.034798126E0,1.874720524E1
1.121623038E1,9.297765198E0,-1.403571259E1,-4.296066284E0,1.737543815E1
1.122619937E1,5.244943085E0,-1.400188293E1,-4.742288361E0,1.568602730E1
1.123616737E1,1.875749359E0,-1.295331345E1,-3.418141937E0,1.352739662E1
1.124613638E1,-1.606459351E0,-1.125763962E1,-9.981243896E-1,1.141540248E1
1.125610438E1,-3.810925140E0,-9.583670654E0,2.247875519E0,1.055570168E1
1.126607338E1,-4.381239166E0,-8.213719482E0,3.814218292E0,1.006025375E1
1.127604138E1,-4.420607300E0,-7.428003387E0,4.108805695E0,9.570751666E0
1.128601038E1,-4.103566589E0,-7.580835571E0,4.695286102E0,9.816009286E0
1.129597838E1,-2.824476471E0,-8.243357849E0,4.881199493E0,9.987828816E0
1.130594738E1,-1.465901642E0,-8.921298065E0,5.228776703E0,1.044406686E1
1.131591538E1,-4.245172119E-1,-9.189091187E0,5.023553467E0,1.048120705E1
1.132588438E1,-3.218307495E-2,-9.290430450E0,4.051774292E0,1.013558132E1
1.133585238E1,5.031037903E-1,-9.104966125E0,3.088677063E0,9.627743639E0
1.134582138E1,6.852749634E-1,-8.685089264E0,2.354304199E0,9.024584509E0
1.135578938E1,2.588117981E-1,-8.293952637E0,2.139201508E0,8.569295010E0
1.136575838E1,-8.153544617E-1,-8.068222046E0,2.360591125E0,8.445910273E0
1.137572638E1,-1.631008301E0,-7.854915619E0,2.942880249E0,8.545199332E0
1.138569538E1,-1.790576477E0,-7.591613159E0,3.761827240E0,8.659682365E0
1.139566338E1,-1.393003235E0,-7.487729187E0,4.078568573E0,8.639517810E0
1.140563238E1,-7.197033691E-1,-7.513475647E0,4.139491882E0,8.608465733E0
1.141560138E1,-6.152206421E-2,-7.789651337E0,3.651506653E0,8.603252510E0
1.142556938E1,7.975415039E-1,-8.322094116E0,2.881058807E0,8.842727112E0
1.143553838E1,1.725461884E0,-8.776249695E0,2.249222717E0,9.222731713E0
1.144550638E1,2.730322266E0,-9.062304840E0,1.849404144E0,9.643667579E0
1.145547538E1,3.554508362E0,-9.197174377E0,1.728305969E0,1.001047390E1
1.146544338E1,4.066743164E0,-9.159303131E0,1.374292145E0,1.011533058E1
1.147541238E1,4.637955322E0,-9.285640411E0,9.554631042E-1,1.042337072E1
1.148538038E1,4.846920776E0,-9.924062805E0,8.231382751E-1,1.107507202E1
1.149534938E1,5.035528564E0,-1.042941193E1,5.619314575E-1,1.159503980E1
1.150531738E1,5.544769592E0,-1.067400330E1,1.085542603E0,1.207713621E1
1.151528638E1,8.049510956E0,-1.057131683E1,3.217409363E0,1.367110417E1
1.152525438E1,9.372908936E0,-9.821825409E0,1.196162567E0,1.362903082E1
1.153522338E1,9.344617767E0,-8.934470673E0,-2.365530853E0,1.314314968E1
1.154519138E1,8.435258789E0,-8.012837219E0,-4.465064850E0,1.246177978E1
1.155516038E1,6.655609589E0,-7.218139801E0,-5.613177338E0,1.130957298E1
1.156512838E1,5.040617981E0,-6.845564575E0,-5.177283783E0,9.953584849E0
1.157509738E1,4.392465820E0,-7.014712830E0,-3.055895233E0,8.822610030E0
1.158506538E1,4.399800568E0,-7.563920746E0,-7.158114624E-1,8.779722555E0
1.159503438E1,4.508324890E0,-8.378077698E0,8.023315430E-1,9.547822533E0
1.160500238E1,4.604574738E0,-9.015601959E0,1.214125214E0,1.019594465E1
1.161497138E1,4.558620300E0,-9.152716827E0,5.483097839E-1,1.023981875E1
1.162493938E1,4.685107269E0,-8.965456238E0,-6.077362061E-2,1.011599373E1
1.163490838E1,5.071603546E0,-8.570278015E0,-2.929408264E-1,9.962762775E0
1.164487638E1,5.393733673E0,-8.163424072E0,-4.692741394E-1,9.795615026E0
1.165484538E1,5.783972168E0,-7.910001068E0,-5.936654663E-1,9.817071336E0
1.166481338E1,6.341862030E0,-7.638615417E0,-5.855822754E-1,9.945379133E0
1.167478237E1,6.936275940E0,-7.469616852E0,-3.773652649E-1,1.020046589E1
1.168475037E1,7.334897003E0,-7.466473389E0,-2.888992310E-2,1.046660277E1
1.169472025E1,7.611970825E0,-7.460485840E0,2.499801636E-1,1.066130568E1
1.170468925E1,8.075556793E0,-7.646548920E0,3.381468201E-1,1.112648512E1
1.171465725E1,8.614136810E0,-8.179440765E0,3.460803223E-1,1.188387041E1
1.172462625E1,8.786578217E0,-9.063652039E0,1.417552185E-1,1.262433521E1
1.173459425E1,8.763226776E0,-1.005923172E1,-7.235952759E-1,1.336060913E1
1.174456325E1,8.732989655E0,-1.088940536E1,-2.020947418E0,1.410420100E1
1.175453125E1,8.645272064E0,-1.149818939E1,-3.273093567E0,1.475338029E1
1.176450025E1,8.760981445E0,-1.190983337E1,-4.014801178E0,1.532049462E1
1.177446825E1,9.403744812E0,-1.206416245E1,-3.916156311E0,1.578957606E1
1.178443725E1,9.629774780E0,-1.208107727E1,-3.088227997E0,1.575506720E1
1.179440525E1,9.158704376E0,-1.206955124E1,-2.005080414E0,1.528320256E1
1.180437425E1,8.215815125E0,-1.210143494E1,-1.048719177E0,1.466438398E1
1.181434225E1,7.019203491E0,-1.253852600E1,5.313949585E-2,1.436964425E1
1.182431125E1,5.834566956E0,-1.328337708E1,9.463320923E-1,1.453911354E1
1.183427925E1,4.537364502E0,-1.424003769E1,1.407073975E0,1.501153580E1
1.184424825E1,3.798201599E0,-1.520807465E1,1.929337921E0,1.579348646E1
1.185421625E1,3.331921234E0,-1.637220383E1,2.851869507E0,1.694945182E1
1.186418525E1,2.643502808E0,-1.785726562E1,2.504591675E0,1.822479142E1
1.187415325E1,1.584305420E0,-1.933619019E1,9.168434143E-1,1.942263825E1
1.188412225E1,3.020718384E-1,-2.040601547E1,-9.647438049E-1,2.043104122E1
1.189409025E1,-5.304968262E-1,-2.050481003E1,-4.002227325E0,2.089848044E1
1.190405925E1,-1.266366577E-1,-1.885553970E1,-2.800825653E0,1.906284445E1
1.191402725E1,8.884025574E-1,-1.613614471E1,9.705816650E-1,1.618970210E1
1.192399625E1,1.336869965E0,-1.344234650E1,2.393522644E0,1.371906889E1
1.193396525E1,6.150709534E-1,-1.138382721E1,2.140698395E0,1.159967344E1
1.194393325E1,-5.553451538E-2,-9.825717316E0,2.865790558E0,1.023526064E1
1.195390225E1,2.888992310E-2,-8.202343140E0,3.657943268E0,8.981081035E0
1.196387025E1,4.231700134E-1,-6.443650360E0,3.366798706E0,7.282515798E0
1.197383925E1,9.770182800E-1,-4.810995483E0,2.727328491E0,5.615920491E0
1.198380725E1,1.610500946E0,-3.745810547E0,1.868414612E0,4.485062219E0
1.199377625E1,2.070644073E0,-3.285966797E0,1.357976074E0,4.114516215E0
1.200374425E1,2.073039093E0,-3.390748901E0,9.192384338E-1,4.079174977E0
1.201371325E1,1.551074524E0,-4.357139282E0,1.156944122E0,4.767495632E0
1.202368125E1,9.803114319E-1,-5.687273254E0,1.437311096E0,5.947432283E0
1.203365025E1,4.090992737E-1,-6.738237762E0,1.482217712E0,6.911452793E0
1.204361825E1,-2.625540161E-1,-7.473508759E0,1.381626892E0,7.604680180E0
1.205358725E1,-9.136999512E-1,-7.742798767E0,1.215023346E0,7.890631285E0
1.206355525E1,-1.174158325E0,-7.373217316E0,1.600022736E0,7.635643661E0
1.207352425E1,-1.270258484E0,-6.718179474E0,2.075883179E0,7.145402930E0
1.208349225E1,-1.212478638E0,-5.904022522E0,2.331252136E0,6.462377497E0
1.209346125E1,-1.183588715E0,-5.115761719E0,2.442919922E0,5.791351997E0
1.210343025E1,-1.080902252E0,-4.436324615E0,2.273023224E0,5.100584314E0
1.211339825E1,-1.046174469E0,-3.885919189E0,1.948348389E0,4.471119592E0
1.212336725E1,-1.207389221E0,-3.477718048E0,1.337768097E0,3.916878226E0
1.213333525E1,-1.325343933E0,-3.131637726E0,2.826123047E-1,3.412266271E0
1.214330425E1,-1.510359192E0,-3.274291077E0,-1.243015137E0,3.814086204E0
1.215327225E1,-1.213227081E0,-4.419559479E0,-3.680695953E0,5.878090561E0
1.216324125E1,7.993377686E-1,-6.051765289E0,-6.713838501E0,9.074052645E0
1.217320925E1,3.883673859E0,-7.815248108E0,-7.419920197E0,1.145496579E1
1.218317825E1,6.786886597E0,-9.544601898E0,-6.332581329E0,1.331400921E1
1.219314625E1,9.415270844E0,-1.106648712E1,-5.666316833E0,1.559556375E1
1.220311525E1,1.138128250E1,-1.217777618E1,-5.183720398E0,1.745573778E1
1.221308325E1,1.230276627E1,-1.272009842E1,-4.802163849E0,1.833629568E1
1.222305225E1,1.268776566E1,-1.275347900E1,-5.621410217E0,1.884756952E1
1.223302025E1,1.204949295E1,-1.228046265E1,-7.763306122E0,1.887508848E1
1.224298925E1,1.075558365E1,-1.111064529E1,-9.130862274E0,1.795833134E1
1.225295725E1,9.473050690E0,-9.675280151E0,-6.180796967E0,1.488462248E1
1.226292625E1,8.859326935E0,-8.302035828E0,-1.757944336E0,1.226791918E1
1.227289425E1,8.396040344E0,-6.930288391E0,1.725611572E0,1.102270956E1
1.228286325E1,8.045169983E0,-6.302643585E0,3.495231628E0,1.080114440E1
1.229283225E1,7.033274231E0,-6.898554382E0,3.398832092E0,1.042156699E1
1.230280025E1,5.996679840E0,-8.426576843E0,3.069067841E0,1.078825954E1
1.231276925E1,5.587879944E0,-1.028181885E1,2.511327667E0,1.196858253E1
1.232273725E1,6.130202179E0,-1.228570175E1,5.667214966E-1,1.374187103E1
1.233270625E1,7.405699768E0,-1.435439987E1,-3.422333221E0,1.651077071E1
1.234267425E1,7.770042114E0,-1.556972260E1,-7.472910004E0,1.893763977E1
1.235264325E1,5.721551971E0,-1.609527969E1,-6.011499023E0,1.810890129E1
1.236261125E1,2.514620819E0,-1.590098373E1,-2.468965759E0,1.628681656E1
1.237258025E1,3.272195435E-1,-1.432191742E1,4.709207153E-1,1.433339309E1
1.238254825E1,-1.094823303E0,-1.236039642E1,2.773582306E0,1.271498315E1
1.239251725E1,-1.926493835E0,-1.067160828E1,3.558849335E0,1.141315076E1
1.240248525E1,-1.856140137E0,-9.424850922E0,3.599414978E0,1.025811188E1
1.241245425E1,-1.363065491E0,-8.559350739E0,3.868255920E0,9.491250522E0
1.242242225E1,-1.071920929E0,-8.055648193E0,4.395609283E0,9.239256640E0
1.243239125E1,-9.198371887E-1,-7.729326782E0,4.857548676E0,9.175204199E0
1.244236025E1,-2.499801636E-1,-7.151228943E0,4.199367371E0,8.296821788E0
1.245232825E1,4.008663940E-1,-6.613846436E0,3.117417297E0,7.322700946E0
1.246229725E1,9.264234924E-1,-6.481222229E0,2.840343475E0,7.136669610E0
1.247226525E1,1.385818176E0,-6.652765503E0,2.837499390E0,7.364182483E0
1.248223425E1,1.390458527E0,-6.847360840E0,3.071612549E0,7.632465462E0
1.249220225E1,1.150357819E0,-7.105873260E0,3.414699097E0,7.967240917E0
1.250217125E1,9.566606140E-1,-7.524552612E0,3.837270355E0,8.500513827E0
1.251213925E1,1.034498749E0,-8.034991150E0,4.303401031E0,9.173359847E0
1.252210825E1,1.079405365E0,-8.528514862E0,4.468807068E0,9.688700548E0
1.253207625E1,1.291214905E0,-8.957223358E0,4.266577606E0,1.000513721E1
1.254204525E1,1.782343597E0,-9.390871582E0,3.848197632E0,1.030406923E1
1.255201325E1,1.852846985E0,-9.574389954E0,3.218606873E0,1.026944084E1
1.256198225E1,1.850152588E0,-9.455088043E0,2.398462372E0,9.928462935E0
1.257195025E1,2.275717621E0,-9.156309357E0,1.732946320E0,9.592705284E0
1.258191925E1,2.829715576E0,-9.033115540E0,1.205592957E0,9.542427415E0
1.259188825E1,3.762276306E0,-9.425898743E0,8.496331787E-1,1.018450621E1
1.260185625E1,5.977220306E0,-1.046878006E1,-1.197509766E0,1.211431171E1
1.261182525E1,5.873036957E0,-1.020383102E1,-7.551346893E0,1.398690711E1
1.262179325E1,5.693560181E0,-9.545649719E0,-1.034768188E1,1.518586766E1
1.263176225E1,5.060975647E0,-8.916358337E0,-8.096213837E0,1.306382788E1
1.264173025E1,4.544848938E0,-8.525820465E0,-3.906725922E0,1.042150536E1
1.265169925E1,4.240232391E0,-8.460705872E0,-8.030799866E-1,9.497791956E0
1.266166725E1,3.670966187E0,-8.554860077E0,1.310524750E0,9.401015839E0
1.267163625E1,3.255130920E0,-8.635392609E0,2.835553436E0,9.654338201E0
1.268160425E1,3.388054504E0,-8.769064636E0,4.162244568E0,1.028103534E1
1.269157279E1,3.648662567E0,-8.930878143E0,4.282743988E0,1.055534078E1
1.270154079E1,3.470982056E0,-9.030720520E0,3.248843994E0,1.020571491E1
1.271150979E1,3.085084534E0,-9.056167603E0,2.489922180E0,9.885930947E0
1.272147879E1,2.975362701E0,-8.889264679E0,1.912273407E0,9.567058028E0
1.273144679E1,3.202590179E0,-8.538244629E0,1.610800323E0,9.260285248E0
1.274141579E1,3.101101227E0,-8.486302643E0,1.269060974E0,9.123852099E0
1.275138379E1,2.921325073E0,-8.627908173E0,4.405339050E-1,9.119704477E0
1.276135279E1,3.047961731E0,-8.780740356E0,-3.287164307E-1,9.300512159E0
1.277132079E1,3.510499878E0,-9.038504333E0,-8.520281982E-1,9.733659231E0
1.278128979E1,4.017345886E0,-9.341773682E0,-1.094224548E0,1.022766498E1
1.279125779E1,4.503085785E0,-9.507329407E0,-7.532336426E-1,1.054677462E1
1.280122679E1,4.963677979E0,-9.426796875E0,-3.367996216E-2,1.065381306E1
1.281119479E1,5.432652740E0,-9.158255310E0,7.117698669E-1,1.067211190E1
1.282116379E1,5.825435944E0,-8.958420868E0,9.815089417E-1,1.073090715E1
1.283113179E1,6.271358643E0,-8.783883820E0,7.611671448E-1,1.081970099E1
1.284110079E1,6.885681152E0,-8.645421753E0,5.451663208E-1,1.106585417E1
1.285106979E1,7.633975067E0,-8.758287048E0,3.606001282E-1,1.162390639E1
1.286103779E1,8.630752258E0,-9.184750214E0,1.652563477E-1,1.260463529E1
1.287100679E1,1.003243744E1,-9.722282410E0,-1.604663086E-1,1.397133944E1
1.288097479E1,1.109238327E1,-1.022388931E1,-8.678952026E-1,1.511033161E1
1.289094379E1,1.128188919E1,-1.056218582E1,-1.922601929E0,1.557360559E1
1.290091179E1,1.044183609E1,-1.051413574E1,-3.039579163E0,1.512673239E1
1.291088079E1,9.194330292E0,-1.008078690E1,-3.867806854E0,1.418160442E1
1.292084879E1,8.889414368E0,-9.864337006E0,-3.656446381E0,1.377303280E1
1.293081779E1,9.055718536E0,-1.016176849E1,-2.276466064E0,1.380035778E1
1.294078579E1,8.977730713E0,-1.073013657E1,-8.045768738E-1,1.401366560E1
1.295075479E1,8.556955719E0,-1.143681702E1,4.251159668E-1,1.428996145E1
1.296072279E1,7.452851715E0,-1.206296494E1,1.211730194E0,1.423124772E1
1.297069179E1,6.208788757E0,-1.246472946E1,1.547481995E0,1.401118264E1
1.298066079E1,5.123395844E0,-1.287442749E1,1.966311035E0,1.399522945E1
1.299062879E1,4.217928772E0,-1.337992630E1,2.618953857E0,1.427137941E1
1.300059779E1,3.216810608E0,-1.380953293E1,3.999083862E0,1.473240449E1
1.301056579E1,2.035916290E0,-1.432760559E1,4.307891693E0,1.509911150E1
1.302053479E1,9.966275024E-1,-1.499581604E1,4.323309631E0,1.563837496E1
1.303050279E1,3.390449524E-1,-1.544338531E1,3.536096649E0,1.584667413E1
1.304047179E1,-1.841171265E-1,-1.563573532E1,1.063688049E0,1.567295602E1
1.305043979E1,-1.356179810E-1,-1.525747192E1,-3.723207550E0,1.570576697E1
1.306040879E1,4.285588074E-1,-1.418629944E1,-5.912554779E0,1.537507914E1
1.307037679E1,7.937992859E-1,-1.276650192E1,-1.208287354E0,1.284809896E1
1.308034579E1,5.472619629E-1,-1.143157791E1,1.398841095E0,1.152984066E1
1.309031379E1,2.278262329E-1,-1.016042130E1,2.207010498E0,1.039985389E1
1.310028279E1,-6.825805664E-2,-9.225764923E0,2.818488922E0,9.646930983E0
1.311025179E1,-3.338058472E-1,-8.455017700E0,2.857407990E0,8.931043112E0
1.312021979E1,1.965412903E-1,-7.703280945E0,2.869233398E0,8.222631336E0
1.313018879E1,9.081614685E-1,-7.018155670E0,2.590962067E0,7.536069977E0
1.314015679E1,1.347198486E0,-6.783593445E0,1.527124329E0,7.082668459E0
1.315012579E1,1.449136505E0,-7.059469757E0,5.858816528E-1,7.230447232E0
1.316009379E1,1.323847046E0,-7.641309814E0,-3.318598938E-1,7.762236641E0
1.317006279E1,1.180744629E0,-8.311765594E0,-9.663903809E-1,8.450651782E0
1.318003079E1,9.677375793E-1,-9.005423126E0,-1.227597198E0,9.140085152E0
1.318999979E1,1.064436493E0,-9.484726410E0,-8.602610779E-1,9.582959315E0
1.319996779E1,1.558409271E0,-9.387877808E0,-6.735992432E-2,9.516586917E0
1.320993679E1,2.086810455E0,-8.990005188E0,2.790197754E-1,9.233245539E0
1.321990579E1,1.625918884E0,-8.298742676E0,2.993774414E-1,8.461818308E0
1.322987379E1,5.634283447E-1,-7.550897827E0,5.037025452E-1,7.588624760E0
1.323984279E1,-1.441502380E-1,-6.884932709E0,8.771759033E-1,6.942082919E0
1.324981079E1,-5.361849976E-1,-6.340365143E0,1.263073425E0,6.487147214E0
1.325977979E1,-7.708969116E-1,-5.920039215E0,1.556912384E0,6.169693876E0
1.326974779E1,-8.327183533E-1,-5.596861267E0,1.751507721E0,5.923348309E0
1.327971679E1,-7.800279236E-1,-5.333858185E0,1.877246246E0,5.708111786E0
1.328968479E1,-6.894662476E-1,-5.090164948E0,1.804048462E0,5.444238583E0
1.329965379E1,-7.569758606E-1,-4.975204010E0,1.595981140E0,5.279471867E0
1.330962179E1,-1.015039215E0,-5.050647125E0,1.257834320E0,5.302969750E0
1.331959079E1,-1.076710968E0,-5.018613739E0,7.524851990E-1,5.187680054E0
1.332955979E1,-9.794132996E-1,-4.916226654E0,-4.236190796E-2,5.013016004E0
1.333952779E1,-7.098239136E-1,-5.110971680E0,-1.051563263E0,5.266086478E0
1.334949679E1,-5.403762817E-2,-5.756878510E0,-2.277064819E0,6.191089923E0
1.335946479E1,9.982740784E-1,-6.946454773E0,-3.414250031E0,7.804286535E0
1.336943379E1,2.760858765E0,-8.505313110E0,-4.610711975E0,1.006088252E1
1.337940179E1,5.802234192E0,-9.610015869E0,-6.305487671E0,1.287546121E1
1.338937079E1,9.706864471E0,-1.045905029E1,-6.775360565E0,1.579621669E1
1.339933879E1,1.318098999E1,-1.102247864E1,-5.165757751E0,1.794208978E1
1.340930779E1,1.549158508E1,-1.108415039E1,-3.591481476E0,1.938417750E1
1.341927579E1,1.614572479E1,-1.101140167E1,-3.431164856E0,1.984208376E1
1.342924479E1,1.472592728E1,-1.132529892E1,-5.114713898E0,1.926851390E1
1.343921379E1,1.181448166E1,-1.121901993E1,-7.830067291E0,1.807645814E1
1.344918179E1,1.005848328E1,-9.952803040E0,-7.941435699E0,1.622645294E1
1.345915079E1,1.024604324E1,-8.107739868E0,-3.821553040E0,1.361326983E1
1.346911879E1,1.066397415E1,-6.830595703E0,7.402107239E-1,1.268563338E1
1.347908779E1,9.960586853E0,-7.245083771E0,2.662213898E0,1.260126629E1
1.348905579E1,8.239016876E0,-8.856333160E0,2.520458679E0,1.235591956E1
1.349902479E1,5.966293030E0,-1.039857605E1,4.849914551E-1,1.199842711E1
1.350899279E1,3.650309143E0,-1.156345367E1,-3.128793640E0,1.252308138E1
1.351896179E1,2.729124756E0,-1.289837769E1,-4.969815216E0,1.408954691E1
1.352892979E1,3.320844269E0,-1.375295059E1,-3.519181824E0,1.457931059E1
1.353889879E1,3.378025360E0,-1.426264069E1,-1.986219635E0,1.479118126E1
1.354886779E1,2.638114014E0,-1.495644791E1,-1.348695374E0,1.524709673E1
1.355883579E1,1.203497314E0,-1.573258392E1,-4.107458496E-1,1.578389416E1
1.356880479E1,-5.917195129E-1,-1.544637909E1,1.735341339E0,1.555481175E1
1.357877279E1,-1.359023895E0,-1.373289230E1,3.854185181E0,1.432808502E1
1.358874179E1,-1.679507446E0,-1.187405777E1,4.524341583E0,1.281731875E1
1.359870979E1,-1.457668762E0,-1.013003448E1,4.160298615E0,1.104764597E1
1.360867879E1,-1.006656647E0,-8.680598602E0,3.936364288E0,9.584420353E0
1.361864679E1,-6.295907593E-1,-7.712561646E0,4.015848999E0,8.718201354E0
1.362861579E1,-4.915777588E-1,-7.187154236E0,4.265978851E0,8.372300178E0
1.363858379E1,-1.877096558E-1,-6.719526672E0,3.854634247E0,7.748901780E0
1.364855279E1,1.981878662E-1,-6.283184052E0,3.400478668E0,7.147092796E0
1.365852179E1,1.505868530E-1,-6.370602264E0,3.122806091E0,7.096419343E0
1.366848979E1,-9.565109253E-2,-6.889872437E0,2.992427216E0,7.512264104E0
1.367845879E1,-5.779481506E-1,-7.783364410E0,3.022065582E0,8.369448369E0
1.368842679E1,-7.827223206E-1,-8.357270966E0,3.371888123E0,9.045786960E0
1.369839625E1,-7.164102173E-1,-8.557404785E0,3.889362030E0,9.427065145E0
1.370836425E1,-6.119274902E-1,-8.580007782E0,4.315825195E0,9.623790101E0
1.371833325E1,-4.117936707E-1,-8.734785919E0,4.643643494E0,9.900983990E0
1.372830125E1,-1.507365417E-1,-8.924890594E0,4.736600189E0,1.010503711E1
1.373827025E1,3.014730835E-1,-9.009764099E0,4.169429626E0,9.932314864E0
1.374823925E1,1.014889526E0,-8.917855225E0,3.370391235E0,9.587370841E0
1.375820725E1,1.832938385E0,-8.765921173E0,2.704276428E0,9.354899686E0
1.376817625E1,2.462080078E0,-8.685538330E0,2.308948517E0,9.318350586E0
1.377814425E1,2.985541534E0,-8.689280548E0,1.983076172E0,9.399449229E0
1.378811325E1,3.549269257E0,-8.635093231E0,1.431772614E0,9.445216789E0
1.379808125E1,4.014352112E0,-8.792715454E0,1.216819611E0,9.742048958E0
1.380805025E1,4.269122314E0,-9.459429016E0,1.029858398E0,1.042913280E1
1.381801825E1,4.385430450E0,-1.011820908E1,7.340734863E-1,1.105210473E1
1.382798725E1,4.586312714E0,-1.057880127E1,4.095483398E-1,1.153746205E1
1.383795625E1,4.980143738E0,-1.075842773E1,2.598596191E-1,1.185804056E1
1.384792425E1,5.769452362E0,-1.056607773E1,1.151255951E0,1.209355074E1
1.385789325E1,7.768545227E0,-1.002659958E1,3.518283691E0,1.316287636E1
1.386786125E1,8.481961670E0,-9.099577332E0,1.510508881E0,1.253106613E1
1.387783025E1,7.892038422E0,-8.533304901E0,-1.134939880E0,1.167859801E1
1.388779825E1,6.900650024E0,-8.089627533E0,-2.049687653E0,1.082877019E1
1.389776725E1,5.612279205E0,-7.615713043E0,-2.901566162E0,9.895243768E0
1.390773525E1,4.259691925E0,-7.395970001E0,-3.389252014E0,9.183266128E0
1.391770425E1,3.348087616E0,-7.386539612E0,-3.103645935E0,8.683505986E0
1.392767225E1,3.254382477E0,-7.532486115E0,-2.138003998E0,8.479411151E0
1.393764125E1,3.519181824E0,-7.799979858E0,-9.583071899E-1,8.610614332E0
1.394761025E1,3.736080780E0,-8.380772095E0,3.891906738E-2,9.175900784E0
1.395757825E1,4.012256470E0,-8.991502075E0,7.292834473E-1,9.873052511E0
1.396754725E1,3.990401917E0,-9.533225555E0,1.318607941E0,1.041846552E1
1.397751525E1,3.601360931E0,-9.740544434E0,1.340163116E0,1.047110518E1
1.398748425E1,3.365900574E0,-9.398805084E0,9.538165283E-1,1.002878805E1
1.399745225E1,3.575015717E0,-8.777896271E0,7.408094788E-1,9.506892184E0
1.400742125E1,4.056115265E0,-8.295748901E0,6.125262451E-1,9.254550733E0
1.401738925E1,4.609514465E0,-8.213420105E0,4.757107544E-1,9.430492784E0
1.402735825E1,5.210514679E0,-8.459059296E0,3.920347595E-1,9.942778215E0
1.403732725E1,5.768254852E0,-8.928333435E0,3.823049927E-1,1.063644955E1
1.404729525E1,6.354136505E0,-9.518106995E0,4.046086121E-1,1.145133702E1
1.405726425E1,7.004084930E0,-9.952803040E0,4.366419983E-1,1.217810126E1
1.406723225E1,7.555538177E0,-1.010593460E1,3.490740967E-1,1.262291266E1
1.407720125E1,8.203540649E0,-1.007869125E1,-1.212478638E-2,1.299531622E1
1.408716925E1,8.583151245E0,-1.020398071E1,-1.010398865E0,1.337208337E1
1.409713825E1,7.921377411E0,-1.053449341E1,-2.350711670E0,1.338841353E1
1.410710625E1,7.409741364E0,-1.053928345E1,-3.279081116E0,1.329410153E1
1.411707525E1,7.107819214E0,-1.026265869E1,-3.841761017E0,1.306148480E1
1.412704325E1,6.716832275E0,-9.756112061E0,-4.121080170E0,1.254116662E1
1.413701225E1,7.119644623E0,-8.893306274E0,-3.998036041E0,1.207329815E1
1.414698125E1,8.250991974E0,-8.135881348E0,-2.898871765E0,1.194465953E1
1.415694925E1,9.162446594E0,-7.939040680E0,-1.288670197E0,1.219177860E1
1.416691825E1,9.902807007E0,-8.189769287E0,5.014572144E-2,1.285069734E1
1.417688625E1,1.012599289E1,-9.196425934E0,1.313069458E0,1.374169325E1
1.418685525E1,9.951306152E0,-1.088102280E1,2.203118591E0,1.490902018E1
1.419682325E1,8.882828064E0,-1.270917114E1,2.334545288E0,1.568049002E1
1.420679225E1,7.038213959E0,-1.418495224E1,1.955234070E0,1.595532093E1
1.421676025E1,5.148992615E0,-1.533785477E1,1.772613831E0,1.627587397E1
1.422672925E1,3.913162537E0,-1.640004593E1,3.462749176E0,1.721234962E1
1.423669825E1,2.581831055E0,-1.720986191E1,4.555476837E0,1.798881785E1
1.424666625E1,1.576222229E0,-1.755040375E1,4.810546417E0,1.826588364E1
1.425663525E1,1.059347076E0,-1.745714767E1,4.498146057E0,1.805844786E1
1.426660325E1,9.151968384E-1,-1.672037979E1,2.706970825E0,1.696279389E1
1.427657225E1,1.421144714E0,-1.503204071E1,-6.047424316E-2,1.509919062E1
1.428654025E1,1.185983734E0,-1.306123901E1,-7.580236816E-1,1.313686119E1
1.429650925E1,9.792636108E-1,-1.114776810E1,2.930905151E-1,1.119453406E1
1.430647725E1,1.308279419E0,-9.473948822E0,1.528621216E0,9.685245693E0
1.431644625E1,1.479523315E0,-8.057145081E0,2.576591949E0,8.587514318E0
1.432641525E1,1.880838776E0,-6.648424530E0,3.273991699E0,7.645791318E0
1.433638325E1,1.893562317E0,-5.652844849E0,3.650458832E0,6.990427942E0
1.434635225E1,1.724264374E0,-5.100643158E0,3.601809998E0,6.477861029E0
1.435632025E1,1.857786713E0,-5.154381409E0,3.227288818E0,6.358805886E0
1.436628925E1,1.926643524E0,-5.747747498E0,3.223097534E0,6.865632839E0
1.437625725E1,1.554517365E0,-6.592740326E0,3.227588196E0,7.503204302E0
1.438622625E1,1.709594879E0,-7.436685333E0,3.218906250E0,8.281809032E0
1.439619425E1,2.531236267E0,-8.030500488E0,3.252885590E0,9.026481030E0
1.440616325E1,3.098706207E0,-8.330925751E0,2.747386780E0,9.303463771E0
1.441613225E1,2.666255493E0,-8.542884979E0,2.181713104E0,9.211388288E0
1.442610025E1,1.365610199E0,-8.653504944E0,1.648072815E0,8.914268508E0
1.443606925E1,-4.071533203E-2,-8.496930542E0,1.282233582E0,8.593230436E0
1.444603725E1,-8.729846191E-1,-8.174351349E0,7.870632935E-1,8.258425440E0
1.445600625E1,-1.381477203E0,-7.821085968E0,4.146377563E-1,7.952973623E0
1.446597425E1,-1.573078766E0,-7.357949066E0,2.624043274E-1,7.528801186E0
1.447594325E1,-1.417252808E0,-6.686894531E0,1.523831177E-1,6.837132777E0
1.448591125E1,-1.183588715E0,-5.934109955E0,-1.517843628E-1,6.052898619E0
1.449588025E1,-1.022224274E0,-5.134173431E0,-5.945635986E-1,5.268603720E0
1.450584825E1,-1.039139099E0,-4.401297455E0,-1.002315674E0,4.632047718E0
1.451581725E1,-1.076411591E0,-3.833228760E0,-1.597927094E0,4.290183636E0
1.452578625E1,-1.166973267E0,-3.479963379E0,-2.867886200E0,4.657976275E0
1.453575425E1,-8.704399109E-1,-3.873345337E0,-4.416116638E0,5.938228347E0
1.454572325E1,7.370672607E-1,-4.878654785E0,-5.223986664E0,7.185720376E0
1.455569125E1,2.296224976E0,-6.099815369E0,-5.209317169E0,8.343703137E0
1.456566025E1,3.585044861E0,-7.286397858E0,-4.640500031E0,9.352987808E0
1.457562825E1,5.286107483E0,-8.625812531E0,-4.337380371E0,1.100729043E1
1.458559725E1,8.037535858E0,-9.473350067E0,-4.546495514E0,1.322939778E1
1.459556625E1,1.181448166E1,-1.014769775E1,-4.529730377E0,1.621962404E1
1.460553425E1,1.504835678E1,-1.086036575E1,-3.428769836E0,1.887212359E1
1.461550325E1,1.556897415E1,-1.231309479E1,-2.453398132E0,2.000061054E1
1.462547125E1,1.372720413E1,-1.448283279E1,-3.189567261E0,2.020796670E1
1.463544025E1,1.166808609E1,-1.491258911E1,-3.291654968E0,1.921885895E1
1.464540825E1,1.029289581E1,-1.334564758E1,-1.141376495E0,1.689238746E1
1.465537725E1,1.039932449E1,-1.076845688E1,1.363065491E0,1.503208439E1
1.466534525E1,1.078881454E1,-9.312285004E0,2.479294281E0,1.446596251E1
1.467531425E1,9.528136139E0,-9.811496887E0,2.104773102E0,1.383766307E1
1.468528325E1,7.924670563E0,-1.106963058E1,2.547702026E-1,1.361624150E1
1.469525063E1,6.899751892E0,-1.217597992E1,-3.209176483E0,1.435826859E1
1.470521963E1,6.455924835E0,-1.272818161E1,-6.541097717E0,1.569941183E1
1.471518763E1,5.302273865E0,-1.197913925E1,-6.100114746E0,1.445078840E1
1.472515663E1,3.070564728E0,-1.055814423E1,-4.302502899E0,1.180738364E1
1.473512463E1,6.457571411E-1,-9.112450562E0,-3.135080566E0,9.658285960E0
1.474509363E1,-1.966460724E0,-8.340356140E0,-1.301842804E0,8.667370017E0
1.475506163E1,-2.968327332E0,-7.886799316E0,1.163380737E0,8.506822282E0
1.476503063E1,-3.226690063E0,-7.973918152E0,3.009641418E0,9.113333140E0
1.477499963E1,-3.167712708E0,-8.910819855E0,3.728596344E0,1.016560598E1
1.478496763E1,-2.410587158E0,-1.026625122E1,4.196523285E0,1.134978644E1
1.479493663E1,-1.559906158E0,-1.132919083E1,4.639302521E0,1.234127221E1
1.480490463E1,-2.869532776E-1,-1.160446838E1,4.983736267E0,1.263264247E1
1.481487363E1,6.438111877E-1,-1.121258331E1,5.068310394E0,1.232169987E1
1.482484163E1,1.120719452E0,-1.022329056E1,4.258494415E0,1.113132771E1
1.483481063E1,1.262624359E0,-9.099277954E0,3.773952026E0,9.931454750E0
1.484477863E1,1.162931671E0,-8.066425781E0,3.372486877E0,8.820051173E0
1.485474763E1,6.258485413E-1,-7.217541046E0,3.424428864E0,8.013195255E0
1.486471663E1,-2.609074402E-1,-6.584058380E0,3.606600037E0,7.511688310E0
1.487468463E1,-5.902226257E-1,-6.328839111E0,4.031416626E0,7.526944085E0
1.488465363E1,-3.745211792E-1,-6.531367950E0,4.719685364E0,8.066874447E0
1.489462163E1,-2.409988403E-2,-7.154821472E0,4.588408356E0,8.499737781E0
1.490459063E1,2.306703186E-1,-7.978857880E0,3.961661682E0,8.911237015E0
1.491455863E1,7.192543030E-1,-8.642427979E0,3.351680145E0,9.297453840E0
1.492452763E1,1.336121521E0,-8.899144135E0,2.795436859E0,9.423080933E0
1.493449563E1,2.067350922E0,-8.958420868E0,2.479443970E0,9.522336199E0
1.494446463E1,2.780467987E0,-8.915609894E0,2.052232361E0,9.561943300E0
1.495443363E1,3.227887573E0,-9.013356628E0,1.739832001E0,9.730717923E0
1.496440163E1,3.411705322E0,-9.080566864E0,1.320553894E0,9.789805430E0
1.497437063E1,3.396586761E0,-9.269174652E0,8.741821289E-1,9.910529489E0
1.498433863E1,4.392016754E0,-9.734706573E0,1.292262726E0,1.075752138E1
1.499430763E1,7.822732544E0,-1.030382309E1,-4.879852295E-2,1.293701264E1
1.500427563E1,8.342152405E0,-9.830507355E0,-5.498066711E0,1.401638752E1
1.501424462E1,7.051536255E0,-9.357790375E0,-7.702682190E0,1.402225792E1
1.502421363E1,5.474415894E0,-8.912765808E0,-6.258335724E0,1.218906845E1
1.503418163E1,4.416416016E0,-8.392747192E0,-3.111280060E0,9.981132174E0
1.504415062E1,3.752396851E0,-8.027806091E0,-5.725593567E-1,8.879976181E0
1.505411862E1,3.048859863E0,-7.963889008E0,1.238075409E0,8.616954526E0
1.506408763E1,2.740201721E0,-7.974965973E0,2.587968292E0,8.820791780E0
1.507405563E1,2.980302429E0,-8.283025360E0,2.915337524E0,9.273074170E0
1.508402462E1,3.146756287E0,-8.826994171E0,2.333048401E0,9.657174331E0
1.509399262E1,3.095413055E0,-9.348809052E0,1.757345581E0,1.000350319E1
1.510396163E1,3.203638000E0,-9.803114319E0,1.578916626E0,1.043347135E1
1.511393062E1,3.332819366E0,-1.016625916E1,1.451681213E0,1.079666099E1
1.512389862E1,3.568728790E0,-1.016131943E1,1.182091827E0,1.083446255E1
1.513386763E1,3.883973236E0,-9.777667236E0,1.002315674E0,1.056847488E1
1.514383563E1,4.134103088E0,-9.432335358E0,7.650590515E-1,1.032691019E1
1.515380462E1,4.424349518E0,-9.024882660E0,6.664141846E-1,1.007310695E1
1.516377262E1,4.897814941E0,-8.771010590E0,6.018983459E-1,1.006387100E1
1.517374163E1,5.500162354E0,-8.875643005E0,3.848497009E-1,1.044877667E1
1.518370963E1,6.259533234E0,-9.220825195E0,2.767744446E-1,1.114818271E1
1.519367862E1,7.210056610E0,-9.476493530E0,3.281176758E-1,1.191203203E1
1.520364763E1,8.520431671E0,-9.547745361E0,1.815724182E-1,1.279805321E1
1.521361563E1,9.933193817E0,-9.438771973E0,-1.245410156E-1,1.370307506E1
1.522358462E1,1.059526703E1,-9.001680908E0,-6.285429382E-1,1.391707616E1
1.523355262E1,1.021894958E1,-8.485105133E0,-1.410217438E0,1.335711994E1
1.524352163E1,9.276509399E0,-8.385262756E0,-2.189646606E0,1.269491278E1
1.525348963E1,8.900341644E0,-8.744665375E0,-3.242557068E0,1.289183580E1
1.526345862E1,8.774752808E0,-9.129365387E0,-4.547992401E0,1.345458413E1
1.527342763E1,8.236472168E0,-9.108708344E0,-5.948629761E0,1.364530093E1
1.528339563E1,7.815547485E0,-8.789422302E0,-5.588478699E0,1.302182096E1
1.529336462E1,7.774233398E0,-8.634045410E0,-3.054548035E0,1.201314733E1
1.530333262E1,8.156089325E0,-8.770860901E0,-6.785389709E-1,1.199625813E1
1.531330163E1,8.712781677E0,-9.311835938E0,1.046623535E0,1.279524419E1
1.532326963E1,9.247469788E0,-1.018362305E1,2.058519287E0,1.390896752E1
1.533323862E1,9.557475128E0,-1.129521149E1,2.579585724E0,1.501936736E1
1.534320662E1,9.210796051E0,-1.260992752E1,3.037184143E0,1.590828474E1
1.535317563E1,8.395740967E0,-1.386880966E1,3.763324127E0,1.664316545E1
1.536314462E1,7.052733765E0,-1.532917282E1,4.743036804E0,1.752772065E1
1.537311262E1,5.348976746E0,-1.672008041E1,5.526956635E0,1.840434435E1
1.538308163E1,3.762725372E0,-1.783196823E1,6.079008636E0,1.921175524E1
1.539304963E1,2.571203156E0,-1.848221603E1,6.571334839E0,1.978347383E1
1.540301862E1,1.986968079E0,-1.847278564E1,6.560108185E0,1.970347358E1
1.541298662E1,2.276016998E0,-1.761162643E1,3.899989929E0,1.818129700E1
1.542295563E1,3.009940796E0,-1.620545059E1,-6.926097107E-1,1.649715372E1
1.543292462E1,2.631827087E0,-1.441786789E1,-1.977537689E0,1.478891759E1
1.544289262E1,1.229992218E0,-1.268477188E1,1.022373962E0,1.278520892E1
1.545286163E1,2.927911377E-1,-1.101379669E1,3.072360992E0,1.143804381E1
1.546282963E1,-8.689430237E-1,-9.495204620E0,4.051923981E0,1.036011876E1
1.547279863E1,-8.469387817E-1,-7.679480438E0,3.680845642E0,8.558057592E0
1.548276663E1,-4.784051514E-1,-5.930367737E0,2.595153351E0,6.490990209E0
1.549273563E1,-1.905537415E-1,-5.003794556E0,1.273551636E0,5.166836987E0
1.550270363E1,2.041754150E-1,-4.957989807E0,4.825964355E-1,4.985604261E0
1.551267263E1,5.513035583E-1,-5.717510376E0,6.330335999E-1,5.778805417E0
1.552264163E1,3.323089600E-1,-6.999594269E0,1.232985992E0,7.115124990E0
1.553260963E1,-1.896556091E-1,-8.320746918E0,1.880689087E0,8.532748090E0
1.554257863E1,-3.879931641E-1,-9.330097961E0,2.262545013E0,9.608349317E0
1.555254663E1,-3.550616455E-1,-9.761051788E0,2.310445404E0,1.003704931E1
1.556251563E1,-1.658551025E-1,-9.768536224E0,1.917063446E0,9.956251310E0
1.557248363E1,7.948471069E-2,-9.385183411E0,1.210981750E0,9.463321947E0
1.558245263E1,-7.918533325E-2,-8.786129150E0,3.400927734E-1,8.793065385E0
1.559242163E1,-1.354982300E0,-8.375233612E0,-1.654060364E-1,8.485745356E0
1.560238963E1,-2.583477631E0,-7.978408813E0,-1.234931946E-1,8.387169632E0
1.561235863E1,-3.214116211E0,-7.411387939E0,-1.272354126E-2,8.078327556E0
1.562232663E1,-3.267405396E0,-6.680308228E0,1.377136230E-2,7.436574862E0
1.563229563E1,-2.867137756E0,-5.869594116E0,4.176315308E-2,6.532561379E0
1.564226363E1,-2.283202057E0,-5.044958954E0,2.844085693E-1,5.544863453E0
1.565223263E1,-1.735491028E0,-4.425247650E0,8.358618164E-1,4.826324777E0
1.566220163E1,-1.386117554E0,-3.881129150E0,9.502239990E-1,4.229351133E0
1.567216963E1,-1.274300079E0,-3.457061005E0,3.174897766E-1,3.698095623E0
1.568213863E1,-1.166524200E0,-3.228486328E0,-7.126679993E-1,3.505966109E0
1.569210663E1,-1.035247192E0,-3.517984314E0,-2.100432129E0,4.226081579E0
1.570207650E1,-1.501377869E-1,-4.285737762E0,-3.026556244E0,5.248821984E0
1.571204450E1,1.550775146E0,-5.190905457E0,-2.153421936E0,5.829890998E0
1.572201350E1,3.499422913E0,-5.974525909E0,-7.610174561E-1,6.965634797E0
1.573198150E1,5.970783691E0,-6.508315887E0,3.658392334E-1,8.839811758E0
1.574195050E1,9.201066284E0,-7.528294830E0,1.117725677E0,1.194086071E1
1.575191950E1,1.301573364E1,-9.006920013E0,3.158432007E-1,1.583141457E1
1.576188750E1,1.703188202E1,-1.060559555E1,-3.593577118E0,2.038326418E1
1.577185650E1,1.893741943E1,-1.294567932E1,-8.403225403E0,2.443011799E1
1.578182450E1,1.559262497E1,-1.545281570E1,-1.086365891E1,2.449364308E1
1.579179350E1,1.313129333E1,-1.595891327E1,-7.107220459E0,2.185475600E1
1.580176150E1,1.321062836E1,-1.590158249E1,1.609303436E0,2.073573931E1
1.581173050E1,1.391940445E1,-1.576327011E1,6.094875641E0,2.189470287E1
1.582169950E1,1.312171326E1,-1.523621613E1,6.925049286E0,2.126682741E1
1.583166750E1,1.057715469E1,-1.428479462E1,3.244053955E0,1.806807806E1
1.584163650E1,7.847281494E0,-1.383123779E1,-3.090323639E0,1.619978598E1
1.585160450E1,5.906417542E0,-1.431757645E1,-1.181253571E1,1.947857190E1
1.586157350E1,4.255949707E0,-1.437131470E1,-1.555894501E1,2.160390159E1
1.587154150E1,1.500330048E0,-1.419079010E1,-7.057374115E0,1.591967472E1
1.588151050E1,-1.239721985E0,-1.387464752E1,-2.086660767E-1,1.393148578E1
1.589147850E1,-2.657573547E0,-1.283730469E1,3.409310303E0,1.354557070E1
1.590144750E1,-3.715573425E0,-1.149729126E1,5.250631256E0,1.317430532E1
1.591141650E1,-3.704346771E0,-9.824819183E0,5.510490875E0,1.185810974E1
1.592138450E1,-3.206631775E0,-8.586594086E0,5.756579132E0,1.082359869E1
1.593135350E1,-3.057242432E0,-7.889493713E0,6.220165100E0,1.050149019E1
1.594132150E1,-2.756817169E0,-6.916666718E0,5.925577698E0,9.515922995E0
1.595129050E1,-1.975891113E0,-5.943240967E0,5.329816589E0,8.223940890E0
1.596125850E1,-1.380579071E0,-5.647306366E0,5.062322845E0,7.708772947E0
1.597122750E1,-1.319955139E0,-5.874234467E0,4.276457062E0,7.384916867E0
1.598119650E1,-1.295855255E0,-6.488257599E0,3.281625824E0,7.385512546E0
1.599116450E1,-1.507365417E0,-7.018305359E0,2.858605499E0,7.726602488E0
1.600113350E1,-1.904489594E0,-7.440128174E0,3.281925201E0,8.351863318E0
1.601110150E1,-2.493514709E0,-7.932304688E0,4.408632202E0,9.411435127E0
1.602107050E1,-3.297492828E0,-8.421337738E0,5.533692627E0,1.060255358E1
1.603103850E1,-3.601809998E0,-8.841663666E0,5.492977295E0,1.101457449E1
1.604100750E1,-2.884651337E0,-8.987610168E0,4.546345825E0,1.047700388E1
1.605097650E1,-1.518592072E0,-8.818012848E0,3.013683014E0,9.441703118E0
1.606094450E1,-1.185534668E-1,-8.543633423E0,1.807341614E0,8.733510789E0
1.607091350E1,1.117575989E0,-8.559500427E0,1.305585022E0,8.730325074E0
1.608088150E1,2.083966370E0,-8.746761017E0,1.012793884E0,9.048452662E0
1.609085050E1,2.745291138E0,-8.949738922E0,8.659492493E-1,9.401293438E0
1.610081850E1,3.375929718E0,-9.196725311E0,8.641529846E-1,9.834806470E0
1.611078750E1,4.363126831E0,-9.598639526E0,1.023721161E0,1.059333571E1
1.612075650E1,5.162614288E0,-1.036205200E1,9.842033386E-1,1.161866448E1
1.613072450E1,4.838388519E0,-1.122111557E1,6.785389709E-1,1.223862138E1
1.614069350E1,4.963977356E0,-1.164668060E1,8.011340332E-1,1.268574223E1
1.615066150E1,9.063202972E0,-1.118938156E1,1.797462158E0,1.451119492E1
1.616063050E1,1.059781174E1,-9.842033386E0,-1.009201355E0,1.449819720E1
1.617059850E1,9.768985291E0,-8.902137909E0,-3.281476135E0,1.361797410E1
1.618056750E1,8.473579102E0,-8.319549408E0,-3.804039459E0,1.246944912E1
1.619053550E1,6.770420837E0,-7.809559937E0,-3.756438446E0,1.099721122E1
1.620050450E1,4.910239105E0,-7.579638062E0,-2.896177368E0,9.484155448E0
1.621047350E1,3.862567749E0,-7.561825104E0,-1.399589539E0,8.605781742E0
1.622044150E1,3.545377350E0,-7.624993744E0,2.043251038E-1,8.411419553E0
1.623041050E1,3.305725708E0,-7.712411957E0,1.175355835E0,8.472932313E0
1.624037850E1,2.894979858E0,-8.306526489E0,1.284179535E0,8.889792336E0
1.625034750E1,2.705773315E0,-8.983718262E0,7.319778442E-1,9.410855147E0
1.626031550E1,3.198847961E0,-9.332193604E0,1.320254517E-1,9.866098340E0
1.627028450E1,4.120182037E0,-9.333391113E0,-3.710783386E-1,1.020910323E1
1.628025350E1,4.800666962E0,-9.229507141E0,-3.189866638E-1,1.040826392E1
1.629022150E1,5.375471649E0,-8.978329468E0,1.953437805E-1,1.046633912E1
1.630019050E1,5.998625793E0,-8.788973236E0,7.358697510E-1,1.066635206E1
1.631015850E1,6.690636749E0,-8.603957977E0,1.142274628E0,1.095890069E1
1.632012750E1,7.360643463E0,-8.346942444E0,1.441801758E0,1.122182305E1
1.633009550E1,8.052504730E0,-8.081095276E0,1.648072815E0,1.152662471E1
1.634006450E1,8.990603943E0,-8.000113678E0,1.550176392E0,1.213407701E1
1.635003350E1,9.813442841E0,-8.274642792E0,9.427395630E-1,1.287098021E1
1.636000150E1,9.977052612E0,-8.922046509E0,1.826202393E-1,1.338573281E1
1.636997050E1,9.430090027E0,-9.561067657E0,-6.243516541E-1,1.344360174E1
1.637993850E1,8.670868835E0,-1.018826340E1,-1.638343048E0,1.347845857E1
1.638990750E1,7.908504181E0,-1.045351181E1,-2.910248108E0,1.342720714E1
1.639987550E1,6.974446564E0,-1.034049683E1,-4.176914062E0,1.315353149E1
1.640984450E1,6.539600830E0,-9.872120819E0,-4.554728394E0,1.268742288E1
1.641981350E1,6.993007965E0,-9.481133881E0,-3.732787628E0,1.235830747E1
1.642978150E1,7.707023163E0,-9.544901276E0,-2.239942017E0,1.247079334E1
1.643975050E1,8.494236145E0,-1.004935226E1,-5.586383057E-1,1.317017864E1
1.644971850E1,9.029223633E0,-1.093356354E1,9.686357117E-1,1.421294995E1
1.645968750E1,8.819509735E0,-1.205712708E1,1.910626831E0,1.506016468E1
1.646965550E1,7.763904877E0,-1.317455338E1,2.078427887E0,1.543265817E1
1.647962450E1,6.112538910E0,-1.430679886E1,1.999242554E0,1.568580875E1
1.648959250E1,4.704117737E0,-1.536285278E1,2.462529144E0,1.625453842E1
1.649956150E1,3.413950653E0,-1.646935181E1,3.794010315E0,1.724207419E1
1.650953050E1,2.021845551E0,-1.767599258E1,4.854554901E0,1.844167228E1
1.651949850E1,7.042854309E-1,-1.833058136E1,4.141737213E0,1.880585595E1
1.652946750E1,4.050576782E-1,-1.835572906E1,2.447560272E0,1.852261894E1
1.653943550E1,-1.517843628E-1,-1.781280807E1,-1.178648987E0,1.785240554E1
1.654940450E1,-9.957293701E-1,-1.653611298E1,-4.077221375E0,1.706042917E1
1.655937350E1,-9.683363342E-1,-1.436203400E1,-1.250798950E0,1.444888209E1
1.656934150E1,-5.542973328E-1,-1.207000031E1,1.317410431E0,1.215432940E1
1.657931050E1,-6.451583862E-2,-9.880204010E0,2.165397034E0,1.011491660E1
